time_ms,ax,ay,az
14,0.349,0.19,0.879
35,0.347,0.191,0.896
55,0.343,0.192,0.871
80,0.351,0.188,0.887
100,0.347,0.189,0.891
125,0.349,0.195,0.892
145,0.348,0.2,0.88
170,0.35,0.199,0.89
191,0.354,0.197,0.882
215,0.35,0.208,0.872
236,0.35,0.199,0.88
260,0.348,0.189,0.887
280,0.353,0.194,0.884
305,0.349,0.199,0.883
326,0.348,0.195,0.882
350,0.353,0.201,0.886
371,0.345,0.194,0.879
395,0.346,0.2,0.874
416,0.346,0.199,0.879
440,0.347,0.194,0.89
462,0.358,0.194,0.888
485,0.353,0.198,0.885
506,0.344,0.201,0.881
530,0.348,0.197,0.88
551,0.348,0.199,0.886
576,0.354,0.198,0.877
596,0.352,0.196,0.886
621,0.35,0.203,0.884
641,0.345,0.197,0.879
665,0.354,0.202,0.886
686,0.348,0.196,0.881
711,0.348,0.194,0.875
731,0.348,0.199,0.879
756,0.353,0.201,0.879
776,0.355,0.193,0.88
800,0.349,0.197,0.89
822,0.349,0.201,0.884
846,0.352,0.197,0.883
866,0.356,0.198,0.885
887,0.344,0.201,0.871
912,0.349,0.201,0.885
932,0.348,0.2,0.864
956,0.351,0.197,0.879
977,0.351,0.199,0.882
1001,0.35,0.195,0.877
1022,0.351,0.198,0.882
1047,0.346,0.196,0.879
1067,0.351,0.193,0.887
1092,0.348,0.2,0.877
1112,0.349,0.2,0.881
1137,0.347,0.197,0.876
1158,0.352,0.2,0.878
1181,0.353,0.2,0.88
1202,0.351,0.198,0.872
1227,0.349,0.202,0.885
1247,0.35,0.196,0.883
1272,0.35,0.203,0.878
1292,0.348,0.197,0.884
1317,0.348,0.198,0.883
1337,0.345,0.203,0.891
1362,0.352,0.2,0.88
1382,0.356,0.195,0.877
1407,0.359,0.192,0.881
1427,0.343,0.19,0.889
1452,0.348,0.199,0.883
1473,0.351,0.204,0.893
1497,0.349,0.195,0.885
1517,0.35,0.195,0.881
1542,0.345,0.194,0.881
1563,0.353,0.203,0.88
1587,0.349,0.2,0.882
1607,0.351,0.198,0.879
1632,0.35,0.201,0.885
1652,0.349,0.198,0.882
1673,0.352,0.201,0.875
1697,0.341,0.194,0.892
1718,0.35,0.191,0.889
1743,0.351,0.198,0.887
1763,0.352,0.197,0.876
1788,0.355,0.2,0.881
1809,0.346,0.194,0.879
1833,0.348,0.198,0.884
1854,0.358,0.195,0.885
1878,0.348,0.194,0.883
1898,0.35,0.201,0.881
1923,0.345,0.197,0.88
1944,0.352,0.191,0.884
1968,0.352,0.2,0.884
1989,0.346,0.195,0.874
2013,0.35,0.198,0.878
2033,0.347,0.199,0.889
2058,0.348,0.193,0.88
2079,0.35,0.203,0.885
2103,0.355,0.201,0.88
2124,0.349,0.198,0.886
2148,0.353,0.199,0.884
2169,0.356,0.195,0.886
2193,0.349,0.198,0.885
2214,0.353,0.197,0.875
2238,0.349,0.204,0.879
2259,0.35,0.209,0.88
2283,0.349,0.198,0.872
2304,0.352,0.195,0.878
2328,0.347,0.202,0.886
2349,0.351,0.198,0.88
2374,0.348,0.199,0.885
2394,0.348,0.202,0.887
2419,0.357,0.196,0.889
2439,0.351,0.198,0.883
2463,0.352,0.199,0.88
2484,0.353,0.201,0.874
2505,0.348,0.198,0.875
2529,0.346,0.207,0.882
2550,0.35,0.193,0.879
2574,0.351,0.198,0.876
2595,0.351,0.193,0.876
2619,0.356,0.188,0.884
2640,0.349,0.196,0.885
2664,0.35,0.197,0.883
2685,0.348,0.201,0.882
2710,0.346,0.197,0.882
2730,0.349,0.203,0.881
2755,0.348,0.212,0.88
2775,0.344,0.198,0.885
2799,0.354,0.187,0.876
2820,0.35,0.194,0.885
2845,0.356,0.188,0.885
2865,0.347,0.196,0.88
2889,0.343,0.197,0.877
2910,0.34,0.203,0.878
2935,0.349,0.205,0.88
2955,0.341,0.199,0.875
2980,0.356,0.193,0.884
3001,0.364,0.192,0.881
3025,0.359,0.188,0.889
3045,0.35,0.196,0.883
3070,0.34,0.201,0.892
3091,0.345,0.208,0.884
3115,0.343,0.203,0.882
3136,0.346,0.197,0.884
3160,0.353,0.197,0.894
3180,0.358,0.184,0.881
3205,0.356,0.191,0.886
3226,0.351,0.194,0.887
3250,0.343,0.199,0.879
3271,0.344,0.202,0.886
3295,0.348,0.201,0.873
3320,0.353,0.197,0.875
3340,0.352,0.19,0.888
3364,0.357,0.184,0.881
3385,0.35,0.196,0.886
3410,0.35,0.202,0.885
3430,0.344,0.205,0.882
3455,0.347,0.203,0.876
3476,0.344,0.205,0.884
3500,0.352,0.191,0.887
3521,0.353,0.191,0.883
3545,0.353,0.197,0.893
3565,0.353,0.199,0.883
3590,0.348,0.203,0.883
3610,0.344,0.198,0.884
3636,0.347,0.204,0.875
3656,0.347,0.198,0.886
3680,0.35,0.198,0.883
3700,0.348,0.194,0.879
3725,0.35,0.197,0.883
3746,0.347,0.194,0.878
3770,0.349,0.199,0.881
3795,0.344,0.201,0.877
3815,0.348,0.205,0.881
3840,0.344,0.199,0.882
3860,0.353,0.196,0.887
3885,0.353,0.194,0.885
3905,0.351,0.198,0.885
3930,0.35,0.195,0.878
3950,0.352,0.2,0.883
3975,0.352,0.201,0.882
3995,0.353,0.192,0.877
4020,0.347,0.197,0.886
4040,0.348,0.2,0.881
4065,0.347,0.2,0.882
4086,0.348,0.195,0.88
4110,0.349,0.197,0.884
4130,0.347,0.198,0.889
4155,0.352,0.196,0.88
4176,0.352,0.203,0.877
4200,0.346,0.198,0.883
4221,0.349,0.2,0.879
4245,0.35,0.202,0.879
4265,0.346,0.196,0.884
4290,0.353,0.196,0.886
4311,0.349,0.198,0.887
4335,0.35,0.197,0.89
4360,0.346,0.194,0.885
4380,0.347,0.191,0.882
4405,0.349,0.201,0.883
4425,0.348,0.196,0.892
4450,0.349,0.192,0.883
4471,0.349,0.191,0.88
4495,0.352,0.194,0.878
4515,0.352,0.198,0.88
4540,0.348,0.196,0.88
4560,0.348,0.192,0.883
4585,0.347,0.199,0.879
4609,0.353,0.195,0.887
4630,0.351,0.203,0.877
4655,0.354,0.203,0.881
4676,0.349,0.197,0.883
4700,0.351,0.197,0.878
4721,0.349,0.2,0.889
4745,0.353,0.195,0.877
4765,0.349,0.192,0.883
4790,0.351,0.199,0.885
4811,0.352,0.194,0.883
4835,0.351,0.202,0.873
4856,0.368,0.196,0.882
4880,0.27,0.259,0.865
4902,0.393,0.141,0.903
4925,0.329,0.198,0.902
4946,0.331,0.202,0.876
4971,0.339,0.205,0.896
4995,0.352,0.197,0.893
5015,0.299,0.388,0.406
5040,0.471,0.255,0.464
5061,0.328,0.242,0.796
5085,0.354,0.207,0.846
5106,0.344,0.219,0.827
5130,0.364,0.173,0.926
5150,0.388,0.183,0.883
5175,0.319,0.253,0.831
5196,0.322,0.214,0.914
5224,0.442,0.208,0.646
5261,0.394,0.144,0.926
5294,0.331,0.215,0.893
5327,0.315,0.237,0.831
5363,0.394,0.159,0.925
5392,0.286,0.245,0.883
5413,0.334,0.192,0.927
5433,0.311,0.237,0.868
5458,0.292,0.25,0.871
5478,0.274,0.281,0.825
5498,0.334,0.194,0.92
5523,0.311,0.211,0.922
5544,0.32,0.221,0.88
5576,0.292,0.246,0.881
5605,0.32,0.223,0.89
5633,0.316,0.224,0.88
5662,0.329,0.206,0.905
5691,0.308,0.227,0.889
5720,0.318,0.22,0.886
5748,0.319,0.214,0.904
5773,0.317,0.216,0.908
5801,0.316,0.224,0.893
5830,0.311,0.228,0.874
5859,0.305,0.223,0.891
5892,0.304,0.218,0.9
5921,0.316,0.223,0.889
5949,0.311,0.225,0.882
5970,0.321,0.219,0.877
5991,0.32,0.22,0.892
6014,0.315,0.225,0.889
6035,0.313,0.23,0.89
6056,0.31,0.233,0.881
6080,0.314,0.221,0.886
6100,0.317,0.221,0.886
6125,0.31,0.223,0.885
6146,0.315,0.219,0.888
6166,0.308,0.223,0.886
6191,0.318,0.225,0.888
6211,0.312,0.22,0.891
6232,0.31,0.229,0.888
6260,0.316,0.22,0.896
6289,0.315,0.224,0.895
6322,0.312,0.215,0.898
6351,0.312,0.221,0.887
6375,0.315,0.223,0.895
6404,0.308,0.227,0.893
6432,0.313,0.227,0.893
6462,0.312,0.224,0.891
6490,0.315,0.219,0.886
6510,0.314,0.23,0.882
6535,0.311,0.225,0.878
6556,0.313,0.222,0.887
6576,0.313,0.222,0.888
6600,0.319,0.22,0.893
6621,0.309,0.228,0.891
6641,0.314,0.221,0.891
6670,0.313,0.227,0.89
6698,0.316,0.223,0.892
6728,0.311,0.228,0.885
6756,0.322,0.222,0.896
6785,0.318,0.219,0.891
6813,0.314,0.226,0.891
6834,0.31,0.223,0.885
6858,0.322,0.227,0.885
6879,0.31,0.226,0.886
6899,0.314,0.226,0.899
6924,0.315,0.221,0.894
6945,0.312,0.22,0.889
6965,0.318,0.227,0.895
6990,0.313,0.226,0.886
7010,0.309,0.225,0.882
7030,0.312,0.222,0.89
7055,0.314,0.226,0.885
7075,0.314,0.228,0.88
7096,0.31,0.224,0.887
7121,0.316,0.222,0.886
7141,0.315,0.227,0.89
7162,0.318,0.22,0.895
7186,0.313,0.227,0.883
7207,0.316,0.227,0.89
7227,0.306,0.22,0.89
7251,0.309,0.227,0.888
7272,0.312,0.223,0.892
7292,0.313,0.225,0.897
7317,0.315,0.22,0.884
7338,0.31,0.222,0.89
7358,0.313,0.226,0.892
7382,0.315,0.224,0.881
7403,0.316,0.222,0.894
7424,0.318,0.221,0.889
7448,0.317,0.224,0.891
7469,0.314,0.222,0.895
7489,0.31,0.233,0.894
7514,0.312,0.222,0.887
7534,0.314,0.229,0.887
7555,0.314,0.218,0.891
7579,0.307,0.224,0.881
7600,0.317,0.229,0.887
7620,0.31,0.224,0.893
7645,0.314,0.225,0.884
7665,0.314,0.227,0.884
7686,0.32,0.222,0.88
7710,0.309,0.225,0.895
7731,0.317,0.226,0.894
7751,0.321,0.227,0.891
7776,0.316,0.226,0.891
7796,0.31,0.225,0.887
7817,0.311,0.226,0.895
7842,0.319,0.231,0.885
7862,0.315,0.221,0.882
7882,0.319,0.226,0.884
7907,0.313,0.223,0.888
7928,0.316,0.223,0.896
7948,0.323,0.217,0.889
7973,0.307,0.224,0.909
7993,0.314,0.229,0.89
8013,0.306,0.222,0.899
8038,0.316,0.229,0.896
8059,0.334,0.215,0.885
8079,0.303,0.233,0.887
8104,0.344,0.208,0.884
8125,0.306,0.235,0.888
8145,0.312,0.226,0.899
8169,0.335,0.206,0.888
8189,0.304,0.229,0.878
8210,0.341,0.215,0.878
8235,0.272,0.25,0.888
8255,0.349,0.199,0.903
8276,0.302,0.241,0.888
8300,0.323,0.218,0.869
8320,0.312,0.228,0.868
8341,0.311,0.225,0.894
8365,0.32,0.221,0.9
8386,0.31,0.228,0.884
8407,0.316,0.218,0.885
8431,0.324,0.219,0.888
8452,0.315,0.219,0.88
8473,0.318,0.215,0.891
8497,0.323,0.224,0.892
8517,0.317,0.227,0.89
8538,0.314,0.225,0.885
8562,0.32,0.224,0.881
8582,0.316,0.217,0.886
8603,0.331,0.218,0.888
8628,0.312,0.221,0.882
8648,0.335,0.219,0.88
8669,0.326,0.215,0.887
8694,0.322,0.226,0.893
8714,0.32,0.225,0.889
8734,0.324,0.216,0.887
8759,0.33,0.226,0.89
8779,0.324,0.224,0.885
8800,0.332,0.218,0.883
8824,0.327,0.214,0.889
8845,0.337,0.212,0.887
8865,0.327,0.221,0.88
8890,0.327,0.223,0.882
8911,0.332,0.221,0.876
8931,0.305,0.233,0.878
8955,0.331,0.206,0.898
8976,0.324,0.211,0.893
8996,0.334,0.214,0.888
9021,0.319,0.223,0.884
9041,0.334,0.222,0.887
9062,0.328,0.222,0.872
9086,0.324,0.222,0.886
9107,0.33,0.215,0.898
9127,0.326,0.219,0.884
9152,0.327,0.22,0.892
9172,0.322,0.217,0.892
9197,0.317,0.217,0.888
9217,0.326,0.215,0.888
9238,0.329,0.219,0.886
9262,0.319,0.221,0.89
9283,0.323,0.222,0.88
9303,0.321,0.22,0.887
9328,0.323,0.217,0.887
9348,0.323,0.218,0.886
9369,0.328,0.22,0.889
9393,0.316,0.225,0.883
9414,0.322,0.217,0.887
9436,0.318,0.223,0.884
9459,0.326,0.221,0.888
9479,0.32,0.218,0.882
9500,0.323,0.216,0.893
9525,0.318,0.219,0.882
9545,0.325,0.222,0.89
9566,0.322,0.219,0.878
9590,0.321,0.224,0.886
9611,0.322,0.222,0.879
9631,0.325,0.218,0.893
9656,0.325,0.218,0.882
9676,0.325,0.217,0.894
9697,0.324,0.215,0.885
9721,0.331,0.212,0.884
9742,0.327,0.217,0.899
9762,0.328,0.219,0.892
9787,0.325,0.224,0.883
9808,0.327,0.221,0.884
9828,0.329,0.211,0.885
9853,0.331,0.213,0.887
9873,0.328,0.22,0.887
9893,0.328,0.218,0.885
9918,0.324,0.214,0.88
9939,0.329,0.219,0.882
9959,0.328,0.214,0.887
9983,0.332,0.212,0.882
10004,0.324,0.223,0.873
10025,0.329,0.22,0.882
10049,0.326,0.217,0.89
10070,0.329,0.211,0.879
10090,0.332,0.214,0.881
10114,0.324,0.211,0.889
10135,0.329,0.219,0.894
10156,0.335,0.212,0.885
10180,0.327,0.215,0.889
10200,0.332,0.211,0.874
10221,0.327,0.218,0.883
10245,0.331,0.219,0.878
10266,0.325,0.217,0.884
10287,0.33,0.213,0.885
10311,0.327,0.219,0.882
10331,0.33,0.214,0.881
10352,0.323,0.218,0.885
10377,0.327,0.221,0.889
10397,0.333,0.22,0.889
10418,0.324,0.22,0.892
10442,0.328,0.222,0.878
10463,0.325,0.22,0.882
10483,0.329,0.219,0.88
10508,0.327,0.213,0.884
10528,0.328,0.214,0.886
10548,0.331,0.217,0.874
10573,0.326,0.221,0.88
10593,0.324,0.214,0.886
10614,0.325,0.213,0.884
10639,0.333,0.215,0.885
10659,0.325,0.216,0.887
10680,0.327,0.211,0.875
10704,0.338,0.216,0.886
10725,0.331,0.215,0.893
10746,0.336,0.22,0.893
10770,0.33,0.218,0.882
10791,0.33,0.219,0.883
10811,0.334,0.215,0.888
10836,0.343,0.21,0.879
10856,0.33,0.212,0.886
10877,0.338,0.219,0.886
10901,0.332,0.211,0.879
10922,0.333,0.216,0.89
10942,0.332,0.215,0.887
10966,0.332,0.214,0.885
10987,0.333,0.21,0.89
11008,0.332,0.209,0.894
11032,0.332,0.215,0.883
11052,0.333,0.223,0.872
11073,0.33,0.217,0.875
11097,0.334,0.212,0.885
11118,0.333,0.207,0.892
11139,0.331,0.214,0.891
11163,0.338,0.21,0.885
11184,0.333,0.213,0.88
11204,0.333,0.216,0.887
11228,0.335,0.214,0.879
11249,0.334,0.214,0.881
11270,0.333,0.211,0.893
11294,0.331,0.213,0.881
11314,0.339,0.21,0.882
11335,0.331,0.222,0.881
11360,0.345,0.204,0.881
11380,0.322,0.222,0.878
11400,0.336,0.213,0.881
11425,0.337,0.214,0.885
11446,0.335,0.201,0.888
11466,0.338,0.214,0.879
11490,0.336,0.215,0.88
11511,0.337,0.211,0.891
11531,0.333,0.215,0.89
11556,0.331,0.214,0.893
11577,0.338,0.215,0.889
11597,0.336,0.216,0.874
11622,0.329,0.216,0.89
11642,0.335,0.214,0.884
11663,0.333,0.217,0.884
11687,0.334,0.218,0.883
11708,0.335,0.208,0.887
11729,0.334,0.21,0.878
11753,0.333,0.217,0.885
11774,0.333,0.218,0.879
11794,0.335,0.209,0.88
11818,0.333,0.217,0.885
11839,0.33,0.207,0.887
11860,0.333,0.215,0.89
11884,0.334,0.214,0.881
11905,0.338,0.216,0.88
11925,0.323,0.219,0.88
11949,0.33,0.211,0.887
11970,0.333,0.21,0.886
11991,0.334,0.215,0.878
12015,0.333,0.208,0.891
12035,0.338,0.212,0.886
12056,0.337,0.216,0.889
12080,0.329,0.219,0.877
12101,0.326,0.213,0.886
12122,0.335,0.21,0.885
12146,0.34,0.208,0.881
12167,0.336,0.214,0.891
12187,0.337,0.214,0.878
12212,0.337,0.214,0.882
12232,0.334,0.213,0.891
12252,0.337,0.218,0.882
12278,0.337,0.209,0.883
12297,0.33,0.219,0.882
12318,0.339,0.212,0.881
12342,0.34,0.211,0.878
12363,0.333,0.213,0.887
12383,0.334,0.217,0.895
12409,0.336,0.21,0.884
12429,0.334,0.216,0.878
12449,0.337,0.204,0.887
12474,0.335,0.218,0.891
12494,0.329,0.21,0.885
12514,0.327,0.213,0.878
12539,0.33,0.214,0.878
12560,0.335,0.211,0.891
12580,0.334,0.212,0.882
12605,0.333,0.21,0.892
12626,0.338,0.215,0.879
12646,0.338,0.214,0.885
12671,0.341,0.216,0.879
12691,0.336,0.209,0.889
12711,0.334,0.214,0.885
12736,0.329,0.21,0.883
12756,0.338,0.218,0.884
12777,0.334,0.218,0.885
12801,0.337,0.21,0.882
12822,0.337,0.212,0.894
12846,0.338,0.212,0.879
12867,0.332,0.209,0.87
12888,0.333,0.216,0.875
12912,0.337,0.212,0.888
12932,0.339,0.217,0.885
12953,0.333,0.208,0.878
12978,0.335,0.213,0.876
12998,0.333,0.216,0.876
13018,0.336,0.217,0.874
13043,0.33,0.213,0.879
13064,0.332,0.211,0.888
13084,0.339,0.212,0.886
13108,0.333,0.219,0.877
13129,0.337,0.219,0.882
13150,0.336,0.209,0.887
13174,0.342,0.209,0.879
13195,0.337,0.214,0.886
13215,0.33,0.212,0.888
13240,0.328,0.211,0.884
13261,0.335,0.214,0.877
13280,0.33,0.212,0.874
13305,0.332,0.206,0.881
13326,0.337,0.211,0.879
13346,0.329,0.212,0.882
13371,0.33,0.217,0.885
13391,0.328,0.213,0.886
13412,0.337,0.215,0.881
13436,0.334,0.21,0.885
13457,0.332,0.216,0.888
13478,0.336,0.213,0.887
13502,0.338,0.21,0.884
13522,0.337,0.216,0.891
13543,0.326,0.218,0.875
13567,0.323,0.212,0.881
13589,0.33,0.213,0.885
13609,0.331,0.215,0.885
13633,0.331,0.207,0.886
13654,0.337,0.216,0.88
13674,0.334,0.209,0.88
13698,0.336,0.214,0.879
13719,0.332,0.216,0.891
13739,0.331,0.212,0.89
13764,0.334,0.214,0.882
13785,0.34,0.214,0.893
13805,0.331,0.213,0.885
13829,0.331,0.209,0.876
13850,0.336,0.214,0.886
13871,0.337,0.215,0.891
13895,0.333,0.215,0.892
13915,0.336,0.215,0.882
13936,0.333,0.211,0.878
13961,0.336,0.213,0.881
13981,0.331,0.209,0.882
14002,0.331,0.219,0.882
14027,0.334,0.217,0.882
14047,0.339,0.209,0.884
14067,0.333,0.213,0.884
14092,0.336,0.216,0.884
14112,0.335,0.211,0.881
14132,0.333,0.214,0.887
14157,0.333,0.217,0.885
14178,0.338,0.215,0.879
14198,0.336,0.221,0.884
14223,0.331,0.212,0.885
14243,0.332,0.213,0.877
14263,0.334,0.209,0.887
14288,0.336,0.214,0.881
14308,0.333,0.218,0.891
14329,0.333,0.213,0.875
14354,0.333,0.212,0.885
14375,0.332,0.214,0.885
14395,0.333,0.213,0.878
14419,0.339,0.216,0.893
14440,0.334,0.215,0.882
14461,0.332,0.209,0.885
14485,0.34,0.216,0.881
14505,0.336,0.212,0.876
14526,0.339,0.213,0.883
14550,0.332,0.209,0.882
14571,0.336,0.208,0.885
14591,0.335,0.214,0.886
14615,0.33,0.215,0.889
14636,0.331,0.213,0.875
14657,0.339,0.21,0.888
14681,0.333,0.217,0.884
14702,0.334,0.216,0.879
14723,0.331,0.213,0.881
14747,0.338,0.213,0.885
14768,0.335,0.209,0.892
14788,0.333,0.211,0.88
14812,0.331,0.207,0.883
14833,0.338,0.221,0.884
14854,0.335,0.212,0.882
14878,0.331,0.219,0.888
14898,0.335,0.217,0.888
14919,0.335,0.218,0.887
14943,0.332,0.212,0.884
14964,0.335,0.216,0.882
14984,0.339,0.212,0.886
15009,0.337,0.211,0.892
15030,0.333,0.214,0.88
15050,0.335,0.214,0.884
15075,0.333,0.216,0.882
15095,0.332,0.216,0.882
15115,0.336,0.213,0.878
15140,0.333,0.211,0.879
15161,0.336,0.213,0.881
15181,0.335,0.216,0.89
15205,0.331,0.21,0.883
15226,0.334,0.209,0.885
15247,0.334,0.211,0.891
15271,0.335,0.209,0.882
15292,0.333,0.215,0.882
15312,0.333,0.22,0.883
15337,0.337,0.211,0.884
15357,0.33,0.204,0.886
15378,0.333,0.211,0.88
15402,0.331,0.217,0.884
15423,0.328,0.212,0.88
15443,0.337,0.221,0.881
15467,0.334,0.215,0.892
15489,0.335,0.213,0.877
15509,0.332,0.209,0.886
15533,0.328,0.213,0.878
15554,0.337,0.214,0.894
15574,0.338,0.212,0.887
15599,0.333,0.214,0.885
15619,0.331,0.206,0.888
15640,0.336,0.215,0.882
15664,0.333,0.208,0.881
15685,0.332,0.216,0.884
15705,0.337,0.215,0.884
15730,0.333,0.212,0.885
15751,0.333,0.212,0.881
15771,0.337,0.219,0.885
15795,0.336,0.21,0.888
15816,0.336,0.207,0.88
15837,0.333,0.208,0.881
15861,0.337,0.216,0.882
15881,0.336,0.21,0.88
15902,0.34,0.22,0.885
15927,0.337,0.208,0.884
15947,0.335,0.217,0.884
15968,0.328,0.209,0.889
15992,0.331,0.214,0.889
16013,0.34,0.214,0.885
16033,0.334,0.214,0.88
16057,0.331,0.21,0.885
16078,0.34,0.216,0.872
16098,0.337,0.21,0.879
16123,0.335,0.212,0.887
16144,0.332,0.213,0.883
16164,0.339,0.211,0.884
16189,0.329,0.214,0.871
16209,0.331,0.219,0.89
16230,0.336,0.218,0.885
16254,0.335,0.215,0.878
16275,0.332,0.209,0.883
16295,0.332,0.216,0.881
16320,0.335,0.216,0.889
16340,0.332,0.219,0.885
16361,0.331,0.219,0.893
16385,0.335,0.216,0.885
16406,0.329,0.217,0.883
16426,0.336,0.217,0.879
16451,0.328,0.208,0.889
16472,0.341,0.208,0.887
16496,0.338,0.221,0.88
16517,0.33,0.215,0.879
16537,0.335,0.218,0.894
16561,0.335,0.223,0.888
16582,0.336,0.216,0.881
16603,0.336,0.22,0.886
16627,0.336,0.214,0.881
16647,0.328,0.212,0.875
16668,0.334,0.214,0.881
16692,0.329,0.213,0.891
16713,0.336,0.21,0.883
16733,0.333,0.216,0.886
16758,0.338,0.208,0.883
16778,0.336,0.212,0.881
16799,0.335,0.216,0.886
16823,0.336,0.217,0.893
16844,0.338,0.208,0.88
16864,0.332,0.217,0.887
16889,0.34,0.219,0.879
16909,0.335,0.211,0.885
16930,0.334,0.208,0.885
16955,0.336,0.217,0.886
16975,0.339,0.211,0.888
16995,0.333,0.213,0.885
17020,0.331,0.215,0.882
17041,0.331,0.213,0.877
17061,0.333,0.214,0.881
17086,0.339,0.216,0.888
17106,0.332,0.215,0.888
17127,0.337,0.21,0.887
17151,0.337,0.217,0.889
17171,0.334,0.212,0.893
17192,0.338,0.209,0.885
17216,0.333,0.211,0.882
17237,0.336,0.209,0.89
17257,0.338,0.213,0.885
17282,0.329,0.21,0.889
17303,0.332,0.217,0.882
17323,0.341,0.214,0.888
17347,0.333,0.213,0.896
17369,0.332,0.215,0.886
17389,0.334,0.206,0.878
17413,0.331,0.217,0.885
17433,0.332,0.214,0.89
17454,0.334,0.218,0.886
17479,0.334,0.213,0.889
17499,0.333,0.212,0.89
17520,0.333,0.211,0.881
17544,0.334,0.215,0.887
17564,0.328,0.212,0.884
17586,0.338,0.207,0.885
17610,0.333,0.215,0.881
17630,0.336,0.214,0.887
17651,0.333,0.214,0.89
17675,0.332,0.215,0.887
17696,0.337,0.21,0.884
17716,0.329,0.21,0.878
17741,0.338,0.213,0.889
17761,0.334,0.205,0.882
17782,0.336,0.213,0.879
17807,0.328,0.208,0.887
17828,0.333,0.211,0.881
17847,0.335,0.216,0.885
17872,0.328,0.209,0.892
17892,0.333,0.21,0.877
17913,0.336,0.204,0.884
17938,0.34,0.214,0.876
17958,0.335,0.207,0.883
17978,0.337,0.214,0.882
18003,0.34,0.212,0.892
18023,0.333,0.213,0.879
18044,0.334,0.212,0.88
18069,0.336,0.214,0.882
18089,0.339,0.213,0.892
18110,0.332,0.214,0.888
18134,0.335,0.209,0.88
18154,0.336,0.211,0.882
18175,0.333,0.216,0.884
18199,0.333,0.213,0.881
18220,0.341,0.215,0.88
18241,0.335,0.21,0.888
18265,0.334,0.212,0.882
18285,0.33,0.213,0.887
18306,0.337,0.213,0.88
18330,0.329,0.211,0.883
18351,0.331,0.211,0.884
18372,0.337,0.21,0.881
18396,0.336,0.214,0.877
18417,0.336,0.208,0.879
18438,0.339,0.21,0.878
18461,0.338,0.216,0.886
18482,0.337,0.215,0.882
18503,0.336,0.216,0.885
18527,0.33,0.209,0.886
18547,0.336,0.215,0.893
18568,0.328,0.21,0.89
18593,0.336,0.211,0.885
18613,0.335,0.216,0.882
18634,0.335,0.216,0.885
18658,0.337,0.211,0.882
18679,0.329,0.214,0.875
18699,0.342,0.208,0.891
18724,0.339,0.214,0.883
18744,0.34,0.208,0.885
18765,0.33,0.214,0.877
18789,0.328,0.212,0.879
18810,0.336,0.212,0.887
18830,0.334,0.212,0.883
18855,0.34,0.216,0.886
18876,0.332,0.211,0.888
18896,0.335,0.221,0.883
18920,0.331,0.216,0.881
18941,0.332,0.215,0.881
18962,0.342,0.214,0.88
18986,0.336,0.206,0.882
19007,0.334,0.206,0.885
19027,0.338,0.21,0.883
19052,0.34,0.206,0.882
19072,0.338,0.218,0.889
19093,0.333,0.204,0.875
19117,0.33,0.216,0.888
19138,0.335,0.216,0.877
19158,0.331,0.217,0.883
19182,0.332,0.213,0.886
19203,0.336,0.211,0.889
19224,0.342,0.208,0.886
19248,0.334,0.213,0.883
19269,0.333,0.217,0.887
19289,0.334,0.208,0.883
19314,0.332,0.215,0.878
19334,0.333,0.209,0.878
19355,0.334,0.217,0.893
19379,0.335,0.21,0.882
19399,0.333,0.208,0.882
19420,0.333,0.215,0.882
19445,0.337,0.218,0.882
19465,0.331,0.217,0.885
19486,0.336,0.217,0.875
19510,0.328,0.211,0.875
19531,0.337,0.21,0.893
19551,0.336,0.213,0.887
19576,0.338,0.206,0.889
19596,0.335,0.211,0.885
19617,0.336,0.212,0.886
19641,0.335,0.216,0.883
19662,0.333,0.212,0.887
19682,0.335,0.21,0.878
19707,0.341,0.215,0.889
19727,0.33,0.21,0.883
19748,0.337,0.209,0.884
19773,0.333,0.213,0.88
19793,0.334,0.211,0.88
19813,0.33,0.21,0.88
19838,0.334,0.214,0.882
19858,0.338,0.217,0.881
19879,0.335,0.208,0.883
19904,0.329,0.209,0.885
19924,0.334,0.212,0.887
19944,0.334,0.21,0.883
19969,0.33,0.209,0.883
19990,0.337,0.208,0.882
20010,0.341,0.21,0.882
20035,0.334,0.208,0.884
20055,0.335,0.214,0.894
20075,0.338,0.216,0.881
20100,0.329,0.212,0.887
20121,0.336,0.209,0.886
20145,0.33,0.211,0.888
20165,0.337,0.212,0.884
20186,0.334,0.214,0.877
20210,0.335,0.211,0.888
20231,0.333,0.215,0.888
20252,0.332,0.212,0.879
20276,0.339,0.213,0.88
20296,0.331,0.214,0.885
20317,0.333,0.214,0.887
20342,0.335,0.21,0.879
20362,0.334,0.213,0.876
20383,0.333,0.21,0.874
20407,0.333,0.216,0.883
20428,0.333,0.214,0.884
20448,0.335,0.211,0.884
20473,0.336,0.212,0.895
20494,0.335,0.214,0.89
20514,0.332,0.213,0.894
20538,0.333,0.219,0.884
20559,0.332,0.207,0.88
20579,0.333,0.215,0.883
20604,0.336,0.212,0.885
20624,0.338,0.21,0.885
20645,0.333,0.211,0.884
20669,0.335,0.21,0.892
20690,0.339,0.21,0.888
20711,0.334,0.214,0.886
20735,0.338,0.215,0.88
20756,0.338,0.216,0.884
20776,0.335,0.21,0.89
20801,0.337,0.209,0.889
20821,0.332,0.215,0.889
20841,0.336,0.209,0.887
20866,0.337,0.212,0.885
20887,0.336,0.21,0.872
20907,0.336,0.206,0.885
20931,0.333,0.209,0.885
20952,0.336,0.208,0.877
20973,0.337,0.215,0.886
20997,0.337,0.209,0.883
21018,0.332,0.217,0.893
21038,0.337,0.213,0.891
21062,0.329,0.211,0.886
21083,0.333,0.216,0.892
21104,0.336,0.212,0.89
21128,0.334,0.214,0.894
21148,0.331,0.204,0.887
21169,0.337,0.217,0.888
21194,0.33,0.211,0.884
21214,0.333,0.211,0.883
21235,0.332,0.212,0.894
21259,0.33,0.214,0.887
21280,0.336,0.219,0.887
21300,0.334,0.21,0.88
21325,0.329,0.215,0.887
21345,0.334,0.208,0.885
21365,0.337,0.212,0.888
21390,0.337,0.216,0.882
21411,0.34,0.21,0.895
21431,0.334,0.217,0.882
21456,0.333,0.211,0.888
21476,0.331,0.208,0.883
21496,0.327,0.211,0.889
21521,0.336,0.215,0.889
21542,0.332,0.21,0.881
21562,0.335,0.214,0.888
21587,0.339,0.212,0.887
21607,0.334,0.214,0.884
21628,0.337,0.212,0.878
21652,0.334,0.211,0.88
21673,0.333,0.218,0.887
21694,0.331,0.208,0.878
21718,0.339,0.212,0.886
21739,0.333,0.207,0.894
21759,0.332,0.209,0.876
21783,0.333,0.211,0.884
21804,0.333,0.21,0.884
21825,0.333,0.212,0.888
21849,0.335,0.21,0.882
21870,0.335,0.215,0.882
21890,0.335,0.212,0.881
21914,0.33,0.208,0.88
21935,0.333,0.215,0.881
21956,0.327,0.203,0.881
21980,0.333,0.211,0.883
22001,0.336,0.211,0.902
22022,0.337,0.218,0.886
22045,0.336,0.209,0.877
22066,0.335,0.208,0.888
22087,0.333,0.205,0.885
22111,0.33,0.211,0.883
22131,0.332,0.214,0.878
22152,0.336,0.213,0.882
22177,0.333,0.202,0.887
22197,0.34,0.208,0.885
22218,0.33,0.21,0.876
22242,0.334,0.212,0.882
22263,0.333,0.204,0.885
22283,0.333,0.212,0.887
22308,0.337,0.215,0.887
22328,0.335,0.211,0.891
22348,0.33,0.214,0.882
22373,0.34,0.215,0.881
22394,0.334,0.214,0.884
22414,0.33,0.217,0.895
22439,0.333,0.21,0.885
22459,0.336,0.207,0.886
22480,0.331,0.21,0.876
22504,0.336,0.207,0.877
22525,0.334,0.218,0.88
22545,0.331,0.205,0.885
22570,0.332,0.212,0.883
22590,0.333,0.218,0.887
22611,0.336,0.211,0.894
22635,0.335,0.216,0.886
22656,0.334,0.209,0.88
22677,0.333,0.211,0.884
22701,0.338,0.208,0.879
22722,0.336,0.213,0.878
22742,0.337,0.206,0.887
22766,0.333,0.217,0.886
22787,0.341,0.208,0.877
22808,0.334,0.215,0.884
22832,0.337,0.214,0.879
22853,0.33,0.211,0.88
22873,0.333,0.211,0.89
22897,0.329,0.203,0.892
22918,0.336,0.213,0.89
22939,0.331,0.209,0.891
22963,0.331,0.212,0.891
22983,0.333,0.21,0.894
23004,0.336,0.215,0.882
23029,0.334,0.208,0.891
23049,0.332,0.213,0.883
23070,0.339,0.21,0.881
23094,0.333,0.208,0.88
23114,0.329,0.208,0.882
23136,0.33,0.204,0.883
23159,0.334,0.215,0.892
23180,0.335,0.207,0.882
23201,0.336,0.217,0.886
23225,0.334,0.208,0.888
23245,0.329,0.208,0.886
23266,0.331,0.217,0.886
23291,0.342,0.21,0.889
23311,0.333,0.211,0.881
23331,0.332,0.216,0.88
23356,0.329,0.212,0.898
23377,0.333,0.209,0.888
23397,0.33,0.215,0.888
23422,0.34,0.213,0.884
23442,0.332,0.216,0.882
23463,0.339,0.223,0.885
23487,0.334,0.216,0.894
23508,0.333,0.213,0.888
23528,0.335,0.212,0.876
23553,0.336,0.206,0.88
23574,0.334,0.216,0.883
23594,0.332,0.21,0.893
23618,0.333,0.213,0.883
23639,0.334,0.209,0.889
23660,0.33,0.208,0.88
23684,0.33,0.203,0.889
23705,0.333,0.21,0.884
23729,0.333,0.208,0.897
23750,0.332,0.209,0.879
23770,0.339,0.213,0.894
23794,0.325,0.211,0.888
23815,0.337,0.216,0.887
23835,0.329,0.21,0.877
23860,0.34,0.215,0.879
23880,0.336,0.212,0.885
23901,0.332,0.213,0.885
23925,0.329,0.213,0.888
23946,0.331,0.214,0.889
23967,0.335,0.208,0.881
23991,0.334,0.211,0.885
24011,0.332,0.218,0.886
24032,0.338,0.214,0.882
24056,0.332,0.214,0.885
24077,0.333,0.217,0.884
24097,0.332,0.214,0.888
24122,0.333,0.207,0.876
24143,0.336,0.208,0.882
24163,0.335,0.214,0.89
24188,0.333,0.21,0.89
24208,0.338,0.21,0.888
24229,0.334,0.207,0.883
24253,0.334,0.207,0.885
24274,0.332,0.211,0.883
24294,0.326,0.207,0.885
24319,0.332,0.215,0.886
24339,0.337,0.209,0.895
24360,0.333,0.206,0.887
24385,0.337,0.208,0.89
24405,0.333,0.213,0.881
24425,0.335,0.215,0.878
24450,0.334,0.211,0.892
24470,0.334,0.218,0.887
24490,0.332,0.213,0.884
24515,0.327,0.214,0.887
24536,0.329,0.22,0.893
24557,0.337,0.208,0.885
24581,0.337,0.208,0.887
24602,0.331,0.212,0.884
24622,0.338,0.203,0.884
24646,0.33,0.212,0.883
24667,0.333,0.207,0.883
24687,0.329,0.213,0.875
24712,0.339,0.208,0.883
24732,0.334,0.213,0.886
24753,0.338,0.207,0.887
24777,0.334,0.209,0.89
24798,0.338,0.212,0.884
24818,0.333,0.217,0.876
24843,0.331,0.213,0.882
24863,0.33,0.214,0.882
24884,0.336,0.211,0.881
24909,0.332,0.212,0.885
24929,0.334,0.214,0.879
24949,0.338,0.208,0.883
24974,0.34,0.206,0.891
24995,0.336,0.214,0.886
25015,0.332,0.211,0.885
25040,0.332,0.211,0.887
25060,0.331,0.209,0.888
25080,0.337,0.208,0.877
25105,0.331,0.211,0.891
25125,0.334,0.217,0.885
25146,0.34,0.212,0.888
25170,0.334,0.211,0.885
25191,0.339,0.209,0.889
25212,0.333,0.211,0.89
25236,0.335,0.209,0.885
25257,0.336,0.21,0.88
25277,0.341,0.215,0.881
25302,0.331,0.209,0.886
25322,0.332,0.211,0.888
25343,0.334,0.208,0.885
25367,0.333,0.204,0.889
25388,0.331,0.209,0.882
25409,0.333,0.213,0.889
25433,0.335,0.207,0.885
25453,0.331,0.212,0.882
25474,0.335,0.213,0.882
25498,0.335,0.207,0.889
25519,0.337,0.212,0.881
25539,0.338,0.215,0.886
25564,0.334,0.21,0.894
25585,0.336,0.211,0.894
25605,0.334,0.214,0.883
25629,0.335,0.206,0.892
25650,0.328,0.215,0.88
25671,0.332,0.209,0.877
25695,0.333,0.217,0.893
25715,0.338,0.213,0.895
25736,0.331,0.21,0.884
25760,0.336,0.211,0.879
25781,0.337,0.207,0.891
25801,0.332,0.21,0.884
25826,0.332,0.215,0.89
25846,0.333,0.215,0.892
25867,0.33,0.212,0.882
25892,0.335,0.211,0.888
25912,0.331,0.212,0.888
25932,0.33,0.213,0.885
25957,0.337,0.212,0.882
25977,0.333,0.216,0.886
25998,0.331,0.216,0.885
26022,0.333,0.207,0.889
26043,0.324,0.213,0.888
26063,0.337,0.209,0.881
26088,0.33,0.217,0.886
26108,0.336,0.209,0.894
26129,0.332,0.212,0.874
26154,0.342,0.213,0.882
26174,0.329,0.211,0.89
26194,0.333,0.216,0.887
26219,0.333,0.208,0.876
26240,0.331,0.211,0.885
26261,0.344,0.217,0.883
26285,0.331,0.208,0.883
26305,0.332,0.218,0.884
26325,0.332,0.212,0.888
26350,0.342,0.211,0.888
26371,0.338,0.212,0.882
26391,0.334,0.208,0.874
26416,0.333,0.21,0.895
26436,0.338,0.211,0.885
26457,0.332,0.207,0.884
26481,0.333,0.213,0.884
26502,0.333,0.212,0.889
26522,0.333,0.211,0.894
26547,0.331,0.213,0.875
26567,0.33,0.214,0.883
26588,0.332,0.214,0.883
26612,0.335,0.203,0.887
26633,0.328,0.218,0.883
26653,0.337,0.208,0.887
26678,0.334,0.211,0.888
26698,0.336,0.212,0.887
26719,0.333,0.213,0.887
26744,0.332,0.208,0.882
26764,0.335,0.211,0.885
26785,0.335,0.214,0.887
26809,0.333,0.208,0.876
26829,0.335,0.203,0.889
26850,0.333,0.211,0.881
26874,0.332,0.213,0.891
26895,0.33,0.211,0.886
26915,0.334,0.211,0.883
26940,0.333,0.214,0.885
26960,0.332,0.217,0.891
26981,0.332,0.213,0.9
27006,0.332,0.207,0.888
27026,0.331,0.21,0.883
27046,0.333,0.21,0.882
27071,0.335,0.204,0.888
27092,0.338,0.212,0.882
27112,0.336,0.21,0.884
27137,0.335,0.209,0.878
27157,0.333,0.21,0.88
27178,0.336,0.206,0.88
27202,0.331,0.215,0.885
27222,0.331,0.209,0.883
27243,0.333,0.21,0.881
27268,0.329,0.2,0.877
27288,0.333,0.212,0.895
27309,0.336,0.212,0.886
27333,0.334,0.205,0.882
27353,0.329,0.208,0.883
27374,0.336,0.21,0.879
27399,0.331,0.21,0.889
27419,0.336,0.211,0.882
27444,0.335,0.214,0.89
27464,0.332,0.211,0.883
27485,0.335,0.213,0.892
27509,0.335,0.214,0.885
27530,0.333,0.213,0.883
27550,0.338,0.211,0.885
27575,0.334,0.204,0.882
27595,0.33,0.209,0.894
27616,0.335,0.208,0.879
27640,0.335,0.207,0.886
27661,0.339,0.206,0.888
27681,0.335,0.208,0.885
27706,0.331,0.211,0.879
27727,0.333,0.211,0.885
27747,0.329,0.211,0.881
27772,0.335,0.214,0.875
27792,0.334,0.212,0.878
27812,0.328,0.213,0.881
27837,0.326,0.216,0.881
27857,0.33,0.208,0.89
27878,0.333,0.209,0.89
27903,0.332,0.214,0.882
27923,0.329,0.21,0.893
27944,0.335,0.217,0.879
27968,0.332,0.211,0.885
27989,0.334,0.213,0.881
28009,0.329,0.211,0.881
28034,0.334,0.209,0.884
28054,0.334,0.209,0.885
28074,0.334,0.212,0.879
28099,0.338,0.212,0.881
28120,0.338,0.216,0.889
28140,0.325,0.211,0.887
28164,0.331,0.212,0.882
28185,0.333,0.209,0.879
28206,0.332,0.202,0.883
28230,0.335,0.205,0.883
28250,0.331,0.218,0.898
28271,0.337,0.211,0.888
28296,0.331,0.217,0.882
28316,0.335,0.213,0.892
28337,0.326,0.205,0.887
28361,0.335,0.209,0.89
28381,0.333,0.214,0.885
28403,0.338,0.209,0.883
28427,0.333,0.208,0.881
28447,0.34,0.212,0.895
28468,0.331,0.218,0.879
28492,0.335,0.211,0.883
28513,0.333,0.208,0.886
28533,0.336,0.217,0.888
28558,0.331,0.21,0.895
28578,0.336,0.212,0.883
28599,0.334,0.214,0.881
28623,0.334,0.213,0.887
28644,0.338,0.211,0.884
28664,0.33,0.207,0.887
28689,0.335,0.209,0.88
28710,0.333,0.211,0.883
28730,0.336,0.213,0.885
28754,0.331,0.208,0.884
28775,0.338,0.216,0.893
28796,0.332,0.206,0.881
28820,0.331,0.214,0.885
28841,0.33,0.208,0.883
28861,0.329,0.208,0.887
28885,0.336,0.213,0.883
28907,0.336,0.214,0.889
28927,0.331,0.209,0.885
28951,0.331,0.206,0.879
28972,0.326,0.212,0.884
28992,0.337,0.208,0.88
29017,0.341,0.214,0.886
29037,0.336,0.212,0.878
29058,0.334,0.209,0.882
29082,0.337,0.208,0.884
29103,0.333,0.22,0.897
29123,0.333,0.214,0.89
29147,0.339,0.214,0.892
29168,0.333,0.208,0.887
29189,0.335,0.207,0.88
29213,0.333,0.208,0.883
29234,0.341,0.215,0.88
29254,0.334,0.213,0.893
29279,0.333,0.208,0.886
29299,0.331,0.213,0.883
29320,0.334,0.213,0.887
29344,0.337,0.215,0.886
29364,0.33,0.21,0.883
29385,0.333,0.213,0.894
29410,0.336,0.212,0.884
29430,0.336,0.212,0.884
29451,0.33,0.207,0.89
29475,0.334,0.21,0.888
29496,0.332,0.209,0.889
29516,0.334,0.213,0.889
29541,0.336,0.208,0.884
29561,0.338,0.206,0.883
29582,0.338,0.215,0.889
29606,0.342,0.212,0.883
29627,0.334,0.207,0.877
29647,0.332,0.208,0.883
29672,0.331,0.208,0.89
29692,0.334,0.213,0.89
29713,0.337,0.208,0.883
29737,0.333,0.216,0.891
29758,0.338,0.212,0.895
29778,0.334,0.207,0.88
29803,0.333,0.209,0.88
29823,0.334,0.216,0.887
29844,0.337,0.208,0.891
29868,0.333,0.206,0.887
29889,0.331,0.207,0.883
29909,0.333,0.209,0.88
29934,0.336,0.209,0.886
29954,0.334,0.208,0.883
29975,0.33,0.207,0.883
29999,0.328,0.208,0.89
30020,0.333,0.213,0.885
30040,0.332,0.208,0.886
30065,0.334,0.21,0.883
30086,0.338,0.209,0.889
30106,0.336,0.212,0.881
30130,0.334,0.212,0.879
30151,0.336,0.213,0.881
30171,0.33,0.211,0.885
30196,0.339,0.214,0.883
30216,0.333,0.209,0.888
30237,0.334,0.212,0.885
30262,0.334,0.209,0.883
30282,0.334,0.207,0.885
30303,0.331,0.213,0.885
30327,0.331,0.21,0.885
30348,0.331,0.21,0.885
30368,0.337,0.205,0.887
30393,0.334,0.209,0.884
30413,0.328,0.209,0.882
30434,0.332,0.214,0.885
30458,0.338,0.21,0.884
30479,0.334,0.208,0.885
30499,0.329,0.21,0.884
30524,0.33,0.211,0.887
30544,0.331,0.209,0.885
30565,0.333,0.213,0.886
30591,0.333,0.208,0.878
30610,0.328,0.211,0.886
30630,0.335,0.203,0.89
30655,0.335,0.212,0.885
30675,0.334,0.205,0.884
30696,0.338,0.214,0.887
30721,0.331,0.206,0.889
30741,0.335,0.208,0.881
30761,0.334,0.209,0.894
30786,0.333,0.207,0.878
30807,0.333,0.21,0.885
30827,0.331,0.214,0.892
30852,0.334,0.216,0.884
30872,0.336,0.209,0.877
30892,0.332,0.207,0.885
30917,0.336,0.218,0.883
30938,0.335,0.21,0.887
30958,0.33,0.208,0.889
30982,0.331,0.214,0.887
31003,0.332,0.209,0.876
31025,0.335,0.21,0.887
31048,0.333,0.205,0.89
31069,0.333,0.214,0.894
31093,0.33,0.21,0.882
31113,0.335,0.21,0.881
31134,0.33,0.214,0.883
31158,0.332,0.208,0.884
31179,0.331,0.205,0.877
31200,0.336,0.216,0.887
31224,0.33,0.208,0.886
31245,0.338,0.211,0.885
31265,0.332,0.212,0.884
31290,0.334,0.208,0.884
31310,0.337,0.213,0.885
31331,0.332,0.206,0.877
31355,0.333,0.215,0.894
31376,0.332,0.207,0.881
31396,0.33,0.212,0.893
31421,0.334,0.212,0.882
31442,0.333,0.211,0.896
31462,0.331,0.213,0.884
31487,0.334,0.203,0.88
31507,0.328,0.214,0.882
31527,0.329,0.208,0.883
31552,0.332,0.212,0.894
31572,0.332,0.209,0.874
31593,0.335,0.209,0.885
31617,0.333,0.207,0.885
31638,0.333,0.217,0.879
31659,0.333,0.209,0.883
31683,0.336,0.204,0.882
31704,0.34,0.213,0.879
31724,0.337,0.203,0.883
31748,0.335,0.211,0.885
31769,0.334,0.208,0.889
31790,0.334,0.212,0.885
31814,0.337,0.202,0.883
31835,0.325,0.213,0.878
31855,0.329,0.211,0.879
31879,0.333,0.207,0.893
31900,0.333,0.212,0.88
31921,0.336,0.213,0.881
31945,0.332,0.208,0.888
31965,0.329,0.211,0.884
31986,0.33,0.21,0.881
32011,0.337,0.204,0.887
32031,0.333,0.209,0.885
32052,0.334,0.208,0.895
32076,0.332,0.207,0.885
32096,0.332,0.208,0.888
32117,0.333,0.213,0.881
32142,0.33,0.209,0.884
32162,0.332,0.211,0.88
32182,0.339,0.208,0.885
32207,0.335,0.212,0.88
32228,0.338,0.211,0.876
32248,0.333,0.205,0.886
32273,0.325,0.216,0.879
32294,0.338,0.212,0.891
32313,0.334,0.212,0.883
32338,0.33,0.207,0.883
32359,0.331,0.209,0.896
32379,0.339,0.209,0.883
32404,0.331,0.213,0.887
32425,0.34,0.209,0.886
32445,0.326,0.21,0.883
32469,0.333,0.212,0.884
32490,0.342,0.215,0.882
32510,0.337,0.214,0.884
32535,0.335,0.208,0.879
32555,0.336,0.208,0.893
32576,0.328,0.211,0.876
32600,0.333,0.207,0.888
32621,0.336,0.217,0.882
32642,0.332,0.208,0.886
32666,0.328,0.213,0.883
32686,0.328,0.215,0.88
32707,0.332,0.209,0.883
32731,0.334,0.208,0.879
32752,0.335,0.208,0.885
32773,0.331,0.21,0.873
32797,0.336,0.202,0.882
32818,0.333,0.213,0.885
32838,0.335,0.204,0.885
32862,0.331,0.212,0.882
32883,0.33,0.216,0.891
32904,0.335,0.211,0.881
32928,0.333,0.211,0.873
32948,0.336,0.212,0.887
32969,0.334,0.209,0.886
32993,0.335,0.216,0.878
33014,0.329,0.211,0.895
33035,0.334,0.214,0.884
33059,0.333,0.209,0.891
33080,0.332,0.213,0.883
33100,0.333,0.206,0.884
33124,0.338,0.208,0.877
33145,0.334,0.213,0.873
33166,0.337,0.212,0.885
33190,0.337,0.211,0.891
33210,0.327,0.205,0.88
33231,0.338,0.215,0.884
33255,0.331,0.215,0.889
33277,0.33,0.209,0.889
33296,0.335,0.207,0.878
33321,0.334,0.208,0.886
33342,0.333,0.214,0.893
33362,0.334,0.211,0.872
33387,0.335,0.214,0.882
33407,0.329,0.211,0.884
33428,0.327,0.205,0.889
33453,0.33,0.207,0.877
33473,0.333,0.211,0.891
33494,0.332,0.205,0.885
33518,0.336,0.208,0.875
33539,0.333,0.214,0.884
33559,0.334,0.206,0.892
33583,0.328,0.216,0.884
33604,0.335,0.207,0.884
33624,0.336,0.206,0.89
33650,0.332,0.206,0.881
33670,0.334,0.209,0.887
33690,0.332,0.203,0.886
33714,0.337,0.215,0.888
33735,0.334,0.212,0.886
33756,0.331,0.212,0.88
33780,0.331,0.209,0.89
33801,0.334,0.212,0.89
33821,0.333,0.208,0.881
33846,0.333,0.207,0.886
33866,0.342,0.211,0.881
33887,0.338,0.212,0.885
33911,0.335,0.208,0.891
33931,0.333,0.21,0.883
33952,0.333,0.209,0.891
33977,0.331,0.209,0.885
33997,0.33,0.209,0.875
34018,0.331,0.207,0.885
34042,0.338,0.207,0.884
34063,0.335,0.211,0.886
34083,0.331,0.217,0.89
34108,0.333,0.211,0.886
34128,0.332,0.21,0.876
34148,0.339,0.21,0.878
34173,0.334,0.209,0.88
34194,0.329,0.211,0.894
34214,0.334,0.208,0.88
34239,0.334,0.211,0.881
34259,0.333,0.215,0.885
34280,0.336,0.208,0.886
34304,0.336,0.214,0.885
34324,0.337,0.205,0.874
34345,0.333,0.211,0.89
34370,0.342,0.207,0.885
34391,0.336,0.21,0.883
34411,0.333,0.21,0.885
34435,0.329,0.206,0.891
34456,0.332,0.215,0.881
34476,0.331,0.213,0.888
34501,0.335,0.211,0.887
34521,0.335,0.21,0.885
34543,0.335,0.21,0.888
34567,0.336,0.212,0.891
34587,0.331,0.211,0.888
34608,0.337,0.209,0.887
34632,0.33,0.208,0.879
34653,0.33,0.208,0.886
34677,0.332,0.207,0.88
34697,0.335,0.212,0.888
34718,0.332,0.213,0.886
34743,0.329,0.211,0.883
34763,0.331,0.207,0.884
34783,0.337,0.205,0.895
34808,0.336,0.211,0.886
34829,0.334,0.208,0.888
34849,0.338,0.208,0.888
34873,0.332,0.21,0.887
34894,0.333,0.209,0.887
34914,0.329,0.207,0.884
34939,0.337,0.206,0.893
34959,0.332,0.208,0.879
34980,0.334,0.207,0.88
35005,0.338,0.211,0.892
35025,0.334,0.21,0.883
35045,0.328,0.211,0.884
35070,0.331,0.213,0.889
35091,0.339,0.219,0.889
35111,0.334,0.21,0.885
35136,0.334,0.21,0.885
35156,0.334,0.207,0.889
35177,0.333,0.211,0.884
35201,0.328,0.211,0.89
35222,0.337,0.215,0.876
35242,0.336,0.208,0.887
35267,0.331,0.204,0.886
35287,0.338,0.211,0.888
35308,0.337,0.21,0.887
35332,0.327,0.205,0.881
35353,0.332,0.205,0.893
35374,0.333,0.205,0.891
35398,0.329,0.206,0.89
35418,0.337,0.207,0.883
35439,0.333,0.207,0.889
35463,0.335,0.215,0.886
35484,0.322,0.217,0.878
35505,0.343,0.212,0.886
35529,0.336,0.21,0.889
35550,0.332,0.208,0.886
35570,0.33,0.211,0.887
35594,0.337,0.207,0.873
35615,0.33,0.211,0.88
35636,0.328,0.218,0.877
35660,0.332,0.216,0.886
35680,0.336,0.206,0.887
35701,0.338,0.21,0.892
35726,0.333,0.208,0.893
35746,0.337,0.213,0.891
35767,0.332,0.21,0.893
35791,0.33,0.211,0.886
35811,0.336,0.213,0.894
35832,0.328,0.213,0.883
35857,0.333,0.207,0.872
35877,0.331,0.208,0.887
35897,0.336,0.206,0.888
35922,0.337,0.206,0.887
35943,0.335,0.214,0.888
35963,0.34,0.206,0.89
35988,0.329,0.209,0.893
36008,0.332,0.209,0.889
36029,0.332,0.208,0.877
36053,0.332,0.215,0.886
36074,0.333,0.208,0.875
36094,0.335,0.205,0.876
36119,0.332,0.207,0.882
36139,0.331,0.21,0.883
36160,0.334,0.203,0.885
36184,0.335,0.208,0.888
36205,0.336,0.207,0.883
36225,0.33,0.209,0.886
36250,0.333,0.208,0.887
36270,0.331,0.209,0.882
36291,0.33,0.207,0.878
36315,0.337,0.21,0.884
36336,0.331,0.206,0.885
36356,0.331,0.215,0.89
36381,0.331,0.206,0.889
36401,0.335,0.204,0.881
36422,0.334,0.214,0.886
36446,0.331,0.219,0.883
36467,0.334,0.218,0.885
36487,0.335,0.208,0.885
36512,0.334,0.207,0.89
36532,0.334,0.208,0.887
36553,0.335,0.205,0.884
36577,0.332,0.208,0.884
36598,0.333,0.205,0.885
36619,0.336,0.208,0.887
36643,0.339,0.202,0.881
36663,0.336,0.21,0.884
36684,0.335,0.206,0.89
36709,0.334,0.21,0.888
36729,0.335,0.207,0.89
36750,0.333,0.215,0.89
36774,0.333,0.208,0.885
36794,0.329,0.209,0.881
36815,0.33,0.21,0.881
36840,0.332,0.212,0.884
36860,0.333,0.211,0.884
36880,0.333,0.208,0.879
36905,0.331,0.206,0.892
36926,0.334,0.208,0.889
36946,0.335,0.214,0.886
36970,0.337,0.212,0.887
36991,0.333,0.21,0.896
37011,0.332,0.208,0.883
37036,0.338,0.212,0.884
37057,0.331,0.203,0.883
37077,0.34,0.207,0.889
37101,0.333,0.21,0.873
37122,0.334,0.209,0.883
37142,0.339,0.213,0.888
37167,0.334,0.205,0.89
37188,0.333,0.21,0.876
37208,0.335,0.213,0.883
37233,0.334,0.204,0.885
37253,0.332,0.207,0.877
37274,0.337,0.208,0.887
37298,0.335,0.206,0.891
37319,0.333,0.211,0.875
37340,0.332,0.208,0.885
37364,0.332,0.217,0.888
37385,0.336,0.209,0.885
37405,0.338,0.209,0.878
37429,0.331,0.203,0.885
37450,0.333,0.214,0.894
37470,0.332,0.211,0.882
37495,0.337,0.209,0.88
37517,0.328,0.207,0.881
37536,0.337,0.209,0.884
37560,0.332,0.211,0.884
37581,0.329,0.206,0.89
37602,0.34,0.209,0.879
37627,0.331,0.207,0.875
37646,0.329,0.207,0.89
37667,0.326,0.205,0.888
37692,0.331,0.212,0.89
37712,0.33,0.218,0.891
37733,0.332,0.208,0.876
37757,0.327,0.217,0.873
37778,0.335,0.201,0.889
37798,0.331,0.215,0.887
37822,0.331,0.207,0.885
37844,0.329,0.209,0.888
37863,0.332,0.207,0.883
37888,0.336,0.211,0.882
37908,0.329,0.209,0.881
37929,0.333,0.216,0.885
37954,0.333,0.206,0.885
37974,0.336,0.21,0.879
37995,0.333,0.209,0.885
38019,0.327,0.209,0.883
38040,0.332,0.21,0.892
38060,0.329,0.209,0.887
38085,0.331,0.212,0.879
38105,0.334,0.215,0.881
38126,0.336,0.205,0.894
38150,0.331,0.206,0.891
38171,0.34,0.208,0.881
38191,0.333,0.207,0.885
38216,0.332,0.213,0.882
38236,0.329,0.211,0.889
38256,0.333,0.211,0.891
38281,0.338,0.217,0.883
38302,0.336,0.208,0.891
38322,0.332,0.212,0.879
38347,0.339,0.204,0.89
38367,0.336,0.203,0.881
38392,0.325,0.215,0.89
38412,0.337,0.207,0.888
38433,0.327,0.21,0.886
38458,0.333,0.21,0.879
38478,0.336,0.211,0.877
38498,0.331,0.206,0.886
38523,0.331,0.203,0.881
38543,0.333,0.206,0.885
38564,0.327,0.204,0.88
38588,0.332,0.208,0.884
38609,0.335,0.209,0.891
38629,0.33,0.215,0.88
38654,0.331,0.208,0.887
38674,0.333,0.211,0.885
38695,0.332,0.202,0.878
38720,0.332,0.202,0.888
38740,0.332,0.205,0.884
38761,0.341,0.208,0.884
38785,0.332,0.202,0.884
38806,0.34,0.207,0.879
38827,0.338,0.209,0.887
38851,0.33,0.212,0.887
38871,0.336,0.202,0.892
38892,0.331,0.212,0.885
38917,0.341,0.209,0.889
38937,0.335,0.21,0.888
38957,0.33,0.213,0.89
38981,0.331,0.209,0.887
39002,0.33,0.21,0.886
39023,0.33,0.205,0.884
39047,0.333,0.205,0.89
39068,0.33,0.205,0.894
39088,0.334,0.212,0.886
39112,0.337,0.207,0.883
39134,0.334,0.208,0.882
39154,0.336,0.21,0.883
39178,0.328,0.211,0.881
39199,0.335,0.214,0.89
39219,0.337,0.204,0.883
39244,0.326,0.207,0.888
39264,0.334,0.206,0.889
39285,0.337,0.199,0.89
39309,0.33,0.213,0.879
39330,0.331,0.216,0.884
39350,0.324,0.215,0.885
39375,0.333,0.209,0.892
39395,0.336,0.211,0.88
39416,0.332,0.209,0.887
39440,0.334,0.216,0.885
39461,0.332,0.213,0.879
39481,0.334,0.209,0.88
39506,0.337,0.214,0.88
39526,0.334,0.2,0.893
39547,0.335,0.205,0.882
39571,0.341,0.211,0.888
39592,0.327,0.208,0.875
39612,0.335,0.216,0.88
39637,0.336,0.212,0.889
39658,0.337,0.205,0.885
39678,0.333,0.209,0.882
39702,0.333,0.21,0.885
39723,0.336,0.208,0.876
39744,0.332,0.211,0.889
39768,0.334,0.206,0.887
39789,0.336,0.207,0.89
39809,0.336,0.209,0.879
39834,0.332,0.21,0.887
39854,0.335,0.209,0.883
39875,0.335,0.21,0.875
39900,0.335,0.211,0.881
39920,0.333,0.211,0.889
39940,0.33,0.207,0.888
39964,0.326,0.209,0.894
39985,0.337,0.209,0.883
40005,0.327,0.213,0.887
40030,0.333,0.212,0.873
40050,0.335,0.207,0.895
40071,0.329,0.206,0.883
40095,0.332,0.21,0.896
40116,0.338,0.204,0.896
40136,0.326,0.208,0.886
40161,0.33,0.21,0.882
40181,0.331,0.21,0.888
40202,0.342,0.204,0.881
40226,0.337,0.21,0.892
40247,0.336,0.209,0.892
40268,0.336,0.21,0.879
40292,0.335,0.21,0.887
40313,0.332,0.204,0.87
40333,0.333,0.216,0.886
40358,0.331,0.207,0.878
40378,0.335,0.214,0.888
40399,0.325,0.205,0.881
40423,0.335,0.207,0.886
40444,0.324,0.203,0.888
40464,0.339,0.204,0.883
40489,0.333,0.207,0.89
40510,0.338,0.21,0.881
40530,0.338,0.205,0.88
40555,0.332,0.208,0.882
40575,0.332,0.211,0.888
40595,0.328,0.212,0.888
40620,0.329,0.205,0.878
40640,0.33,0.208,0.881
40661,0.34,0.205,0.882
40686,0.329,0.212,0.885
40706,0.332,0.21,0.888
40726,0.329,0.207,0.881
40751,0.334,0.208,0.886
40772,0.332,0.209,0.885
40792,0.333,0.205,0.887
40817,0.329,0.208,0.883
40837,0.33,0.212,0.888
40857,0.337,0.205,0.881
40882,0.33,0.21,0.882
40903,0.33,0.205,0.884
40923,0.333,0.212,0.887
40947,0.339,0.209,0.885
40968,0.336,0.206,0.883
40989,0.33,0.208,0.88
41013,0.332,0.209,0.889
41034,0.339,0.205,0.88
41054,0.336,0.204,0.885
41078,0.327,0.203,0.895
41099,0.33,0.211,0.889
41120,0.341,0.214,0.88
41144,0.331,0.21,0.878
41164,0.333,0.206,0.888
41185,0.332,0.203,0.888
41210,0.333,0.204,0.883
41230,0.332,0.202,0.883
41250,0.331,0.208,0.888
41275,0.329,0.207,0.895
41296,0.335,0.204,0.89
41316,0.331,0.21,0.875
41341,0.329,0.213,0.877
41361,0.334,0.203,0.882
41382,0.335,0.214,0.892
41406,0.343,0.205,0.888
41427,0.333,0.203,0.881
41447,0.332,0.206,0.883
41472,0.326,0.207,0.879
41493,0.339,0.217,0.885
41513,0.332,0.207,0.892
41537,0.313,0.159,0.856
41558,0.325,0.123,0.888
41578,0.342,0.254,0.833
41603,0.359,0.205,0.904
41624,0.304,0.237,0.879
41644,0.352,0.18,0.895
41669,0.32,0.238,0.886
41689,0.346,0.199,0.868
41709,0.329,0.234,0.862
41734,0.331,0.186,0.885
41755,0.333,0.222,0.862
41775,0.336,0.199,0.895
41800,0.337,0.207,0.88
41820,0.324,0.202,0.88
41841,0.336,0.211,0.891
41865,0.329,0.207,0.864
41886,0.345,0.211,0.899
41906,0.322,0.218,0.887
41930,0.338,0.197,0.882
41951,0.323,0.217,0.89
41976,0.331,0.198,0.882
41996,0.337,0.206,0.885
42017,0.333,0.199,0.895
42041,0.344,0.237,0.896
42062,0.332,0.216,0.887
42082,0.327,0.215,0.891
42107,0.333,0.204,0.889
42127,0.326,0.209,0.886
42147,0.335,0.205,0.881
42172,0.345,0.205,0.89
42193,0.339,0.219,0.889
42213,0.332,0.198,0.881
42238,0.33,0.191,0.866
42258,0.309,0.251,0.854
42279,0.348,0.2,0.87
42303,0.33,0.231,0.893
42324,0.338,0.209,0.915
42344,0.329,0.204,0.897
42369,0.342,0.211,0.891
42390,0.326,0.218,0.888
42410,0.342,0.191,0.894
42434,0.324,0.231,0.881
42455,0.343,0.206,0.886
42475,0.332,0.209,0.879
42500,0.334,0.198,0.886
42521,0.338,0.213,0.88
42541,0.33,0.212,0.888
42566,0.342,0.21,0.888
42586,0.333,0.211,0.887
42606,0.332,0.205,0.894
42631,0.335,0.21,0.883
42652,0.338,0.207,0.887
42672,0.335,0.213,0.885
42696,0.333,0.205,0.881
42717,0.33,0.213,0.895
42737,0.334,0.21,0.88
42762,0.333,0.209,0.874
42783,0.333,0.214,0.878
42803,0.341,0.208,0.883
42827,0.333,0.209,0.894
42848,0.338,0.211,0.893
42869,0.33,0.209,0.883
42893,0.334,0.207,0.886
42913,0.334,0.21,0.883
42934,0.332,0.205,0.878
42959,0.341,0.216,0.889
42979,0.334,0.212,0.878
43000,0.331,0.211,0.881
43024,0.344,0.211,0.89
43045,0.334,0.208,0.879
43065,0.335,0.205,0.888
43090,0.335,0.206,0.892
43110,0.333,0.21,0.884
43131,0.333,0.213,0.883
43155,0.334,0.21,0.885
43176,0.333,0.21,0.884
43196,0.332,0.208,0.879
43221,0.333,0.203,0.884
43241,0.337,0.203,0.881
43262,0.334,0.211,0.882
43286,0.331,0.203,0.884
43307,0.329,0.208,0.888
43327,0.334,0.202,0.883
43352,0.334,0.216,0.884
43373,0.343,0.213,0.882
43393,0.332,0.205,0.884
43417,0.331,0.203,0.878
43438,0.337,0.212,0.887
43459,0.341,0.206,0.882
43483,0.332,0.208,0.89
43504,0.335,0.211,0.883
43524,0.333,0.205,0.888
43549,0.333,0.205,0.882
43569,0.34,0.208,0.882
43590,0.335,0.206,0.893
43614,0.337,0.206,0.882
43634,0.332,0.202,0.886
43655,0.332,0.208,0.898
43679,0.337,0.207,0.883
43700,0.339,0.211,0.885
43720,0.334,0.207,0.893
43745,0.338,0.202,0.883
43765,0.336,0.206,0.891
43786,0.34,0.211,0.877
43810,0.331,0.209,0.881
43831,0.332,0.204,0.881
43852,0.341,0.202,0.883
43876,0.331,0.21,0.879
43896,0.336,0.207,0.883
43917,0.336,0.21,0.884
43943,0.341,0.206,0.877
43962,0.343,0.22,0.869
43984,0.339,0.231,0.898
44007,0.331,0.206,0.883
44028,0.333,0.197,0.888
44048,0.338,0.202,0.864
44072,0.343,0.226,0.844
44093,0.332,0.207,0.88
44113,0.323,0.22,0.888
44138,0.337,0.202,0.879
44158,0.33,0.214,0.89
44179,0.34,0.207,0.888
44204,0.331,0.209,0.886
44224,0.334,0.213,0.886
44245,0.335,0.212,0.887
44269,0.334,0.205,0.884
44290,0.332,0.219,0.89
44310,0.328,0.208,0.884
44335,0.339,0.205,0.891
44355,0.334,0.205,0.885
44376,0.338,0.21,0.876
44400,0.335,0.198,0.882
44421,0.327,0.207,0.893
44441,0.337,0.204,0.879
44466,0.336,0.205,0.887
44487,0.335,0.214,0.891
44507,0.332,0.214,0.885
44531,0.335,0.207,0.893
44552,0.332,0.206,0.881
44573,0.333,0.208,0.884
44597,0.34,0.213,0.88
44618,0.338,0.206,0.883
44638,0.329,0.207,0.883
44662,0.332,0.208,0.895
44683,0.335,0.21,0.886
44703,0.328,0.215,0.89
44728,0.339,0.209,0.881
44748,0.338,0.21,0.881
44769,0.33,0.205,0.881
44794,0.33,0.203,0.884
44814,0.33,0.201,0.879
44835,0.337,0.206,0.882
44859,0.332,0.207,0.878
44879,0.333,0.211,0.88
44900,0.333,0.207,0.892
44925,0.331,0.204,0.885
44945,0.333,0.207,0.89
44965,0.334,0.208,0.885
44990,0.338,0.212,0.883
45011,0.333,0.207,0.875
45031,0.337,0.203,0.886
45055,0.335,0.207,0.885
45076,0.333,0.208,0.881
45096,0.334,0.208,0.888
45122,0.339,0.205,0.889
45142,0.338,0.212,0.886
45162,0.333,0.205,0.887
45187,0.339,0.21,0.883
45208,0.338,0.217,0.871
45228,0.343,0.222,0.887
45252,0.334,0.205,0.872
45273,0.338,0.197,0.891
45293,0.333,0.216,0.882
45318,0.375,0.21,0.847
45339,0.333,0.259,0.883
45359,0.34,0.211,0.843
45383,0.341,0.194,0.882
45404,0.336,0.236,0.852
45425,0.371,0.317,0.969
45449,0.327,0.216,0.895
45470,0.365,0.201,0.873
45490,0.338,0.204,0.864
45514,0.334,0.213,0.878
45535,0.345,0.209,0.886
45555,0.316,0.203,0.914
45580,0.347,0.198,0.904
45601,0.337,0.219,0.866
45625,0.349,0.213,0.865
45645,0.331,0.23,0.865
45666,0.347,0.203,0.886
45690,0.332,0.208,0.9
45711,0.338,0.195,0.911
45731,0.365,0.2,0.866
45756,0.311,0.241,0.858
45777,0.357,0.209,0.885
45797,0.319,0.222,0.887
45822,0.358,0.195,0.896
45842,0.328,0.223,0.879
45862,0.347,0.194,0.894
45887,0.318,0.231,0.884
45908,0.348,0.195,0.889
45928,0.33,0.208,0.89
45952,0.356,0.197,0.889
45973,0.327,0.215,0.869
45994,0.336,0.207,0.887
46018,0.338,0.204,0.885
46039,0.342,0.206,0.885
46060,0.334,0.208,0.889
46084,0.338,0.209,0.881
46104,0.341,0.21,0.882
46124,0.339,0.211,0.877
46149,0.338,0.202,0.882
46170,0.344,0.215,0.883
46190,0.339,0.217,0.879
46215,0.336,0.207,0.879
46235,0.328,0.205,0.881
46256,0.341,0.205,0.892
46280,0.332,0.207,0.882
46301,0.335,0.215,0.885
46322,0.337,0.203,0.881
46346,0.334,0.21,0.881
46367,0.336,0.21,0.893
46387,0.336,0.219,0.882
46411,0.35,0.184,0.871
46432,0.334,0.202,0.875
46453,0.338,0.193,0.878
46477,0.347,0.216,0.861
46497,0.358,0.205,0.928
46518,0.333,0.218,0.89
46542,0.349,0.204,0.904
46563,0.337,0.215,0.879
46584,0.337,0.211,0.877
46608,0.331,0.223,0.874
46628,0.342,0.223,0.871
46650,0.348,0.216,0.871
46674,0.333,0.213,0.879
46694,0.323,0.213,0.919
46714,0.346,0.21,0.9
46739,0.337,0.197,0.928
46760,0.347,0.209,0.894
46780,0.333,0.215,0.865
46805,0.341,0.216,0.876
46825,0.347,0.2,0.892
46845,0.334,0.204,0.885
46870,0.341,0.198,0.88
46891,0.309,0.184,0.824
46911,0.326,0.188,0.912
46936,0.316,0.238,0.907
46956,0.358,0.174,0.927
46977,0.332,0.216,0.87
47001,0.34,0.212,0.877
47022,0.335,0.224,0.885
47042,0.347,0.201,0.879
47067,0.341,0.214,0.879
47087,0.328,0.214,0.857
47108,0.35,0.2,0.896
47132,0.3,0.236,0.864
47153,0.344,0.193,0.937
47174,0.351,0.23,0.898
47197,0.337,0.215,0.874
47218,0.358,0.208,0.874
47239,0.332,0.219,0.875
47263,0.335,0.205,0.873
47284,0.344,0.212,0.893
47304,0.352,0.2,0.893
47328,0.346,0.209,0.871
47349,0.329,0.229,0.869
47370,0.341,0.208,0.895
47394,0.339,0.2,0.895
47415,0.342,0.208,0.889
47435,0.341,0.21,0.876
47460,0.329,0.211,0.876
47480,0.337,0.213,0.88
47501,0.334,0.207,0.886
47526,0.341,0.207,0.894
47546,0.334,0.211,0.876
47567,0.326,0.221,0.883
47591,0.341,0.204,0.893
47612,0.33,0.21,0.89
47632,0.342,0.201,0.898
47656,0.324,0.21,0.891
47677,0.329,0.213,0.881
47697,0.339,0.205,0.88
47722,0.337,0.208,0.885
47743,0.338,0.207,0.886
47763,0.345,0.208,0.886
47788,0.338,0.218,0.872
47808,0.337,0.204,0.88
47828,0.344,0.187,0.875
47853,0.347,0.203,0.891
47874,0.336,0.209,0.878
47894,0.335,0.226,0.877
47919,0.341,0.203,0.897
47939,0.337,0.208,0.878
47959,0.34,0.21,0.89
47984,0.343,0.21,0.88
48005,0.281,0.137,0.915
48025,0.354,0.174,0.924
48050,0.336,0.249,0.895
48070,0.345,0.222,0.89
48091,0.339,0.214,0.874
48115,0.337,0.212,0.868
48136,0.329,0.221,0.874
48156,0.333,0.204,0.888
48181,0.347,0.199,0.881
48201,0.345,0.204,0.883
48222,0.316,0.208,0.857
48246,0.353,0.186,0.89
48267,0.344,0.211,0.888
48287,0.342,0.203,0.889
48312,0.324,0.216,0.877
48332,0.347,0.195,0.874
48353,0.336,0.218,0.871
48377,0.357,0.203,0.885
48398,0.309,0.225,0.872
48419,0.348,0.2,0.885
48443,0.336,0.207,0.895
48463,0.338,0.204,0.882
48484,0.318,0.217,0.872
48508,0.36,0.183,0.845
48529,0.329,0.224,0.9
48549,0.327,0.198,0.895
48574,0.343,0.19,0.895
48594,0.331,0.21,0.875
48615,0.357,0.193,0.864
48639,0.35,0.208,0.868
48660,0.332,0.221,0.885
48680,0.358,0.201,0.897
48705,0.356,0.204,0.891
48726,0.357,0.226,0.877
48746,0.331,0.222,0.858
48771,0.347,0.203,0.89
48791,0.358,0.194,0.893
48812,0.355,0.19,0.881
48836,0.337,0.217,0.88
48857,0.341,0.208,0.873
48877,0.349,0.208,0.897
48902,0.345,0.195,0.89
48922,0.347,0.208,0.885
48943,0.35,0.19,0.867
48967,0.334,0.215,0.865
48988,0.357,0.198,0.872
49008,0.333,0.201,0.909
49033,0.372,0.175,0.887
49053,0.33,0.224,0.852
49074,0.341,0.212,0.883
49098,0.343,0.198,0.871
49119,0.352,0.186,0.891
49139,0.348,0.204,0.882
49164,0.358,0.204,0.877
49184,0.34,0.212,0.884
49205,0.356,0.195,0.872
49229,0.342,0.229,0.904
49250,0.372,0.198,0.831
49274,0.347,0.217,0.87
49295,0.322,0.205,0.899
49315,0.34,0.205,0.894
49340,0.343,0.208,0.901
49360,0.343,0.203,0.877
49381,0.343,0.207,0.882
49405,0.335,0.212,0.898
49426,0.347,0.204,0.891
49446,0.329,0.214,0.89
49471,0.367,0.193,0.905
49492,0.356,0.191,0.895
49512,0.36,0.188,0.873
49537,0.346,0.193,0.882
49557,0.346,0.201,0.895
49577,0.334,0.193,0.849
49602,0.361,0.195,0.916
49623,0.454,0.141,0.884
49643,0.296,0.271,0.844
49668,0.399,0.18,0.879
49688,0.338,0.19,0.942
49709,0.381,0.173,0.887
49734,0.325,0.209,0.871
49754,0.377,0.188,0.876
49774,0.402,0.182,0.849
49799,0.343,0.225,0.859
49819,0.356,0.197,0.87
49839,0.369,0.196,0.879
49864,0.365,0.186,0.899
49885,0.373,0.187,0.876
49905,0.333,0.22,0.858
49929,0.368,0.189,0.894
49950,0.347,0.199,0.874
49971,0.391,0.171,0.893
49995,0.347,0.204,0.86
50016,0.341,0.238,0.885
50036,0.411,0.187,0.915
50061,0.354,0.191,0.872
50081,0.363,0.191,0.867
50102,0.354,0.19,0.886
50126,0.381,0.18,0.893
50147,0.339,0.206,0.872
50167,0.372,0.191,0.883
50192,0.34,0.21,0.879
50212,0.384,0.173,0.878
50233,0.346,0.211,0.885
50257,0.369,0.173,0.886
50278,0.345,0.206,0.861
50298,0.371,0.188,0.891
50322,0.372,0.188,0.887
50343,0.361,0.191,0.872
50364,0.356,0.201,0.872
50388,0.363,0.18,0.878
50409,0.361,0.201,0.875
50429,0.365,0.182,0.884
50454,0.358,0.199,0.904
50474,0.36,0.197,0.879
50495,0.367,0.196,0.888
50519,0.369,0.222,0.909
50540,0.363,0.204,0.885
50560,0.334,0.208,0.825
50585,0.391,0.188,0.904
50605,0.359,0.186,0.868
50626,0.362,0.194,0.872
50650,0.361,0.182,0.89
50671,0.355,0.196,0.884
50691,0.349,0.2,0.895
50717,0.382,0.183,0.876
50737,0.357,0.205,0.868
50757,0.374,0.177,0.892
50781,0.355,0.2,0.875
50802,0.371,0.19,0.872
50823,0.375,0.187,0.876
50847,0.366,0.195,0.871
50868,0.378,0.197,0.877
50888,0.361,0.191,0.871
50912,0.375,0.185,0.879
50933,0.37,0.189,0.881
50954,0.367,0.187,0.862
50978,0.368,0.208,0.875
50999,0.365,0.198,0.883
51019,0.36,0.196,0.88
51044,0.369,0.198,0.886
51064,0.367,0.192,0.867
51085,0.376,0.186,0.865
51109,0.372,0.192,0.883
51129,0.373,0.17,0.867
51150,0.366,0.184,0.877
51175,0.369,0.178,0.869
51195,0.364,0.181,0.86
51216,0.364,0.195,0.878
51240,0.368,0.177,0.869
51261,0.367,0.186,0.863
51281,0.37,0.197,0.891
51306,0.356,0.181,0.877
51326,0.358,0.18,0.881
51347,0.364,0.194,0.869
51371,0.365,0.194,0.88
51392,0.371,0.187,0.873
51412,0.374,0.183,0.879
51437,0.366,0.186,0.872
51458,0.37,0.189,0.882
51478,0.372,0.194,0.885
51502,0.371,0.19,0.877
51523,0.369,0.194,0.883
51544,0.362,0.2,0.873
51568,0.366,0.184,0.88
51589,0.367,0.194,0.882
51609,0.367,0.192,0.87
51634,0.367,0.185,0.872
51654,0.368,0.185,0.885
51675,0.357,0.193,0.877
51700,0.373,0.199,0.881
51720,0.367,0.198,0.875
51740,0.365,0.19,0.888
51764,0.365,0.185,0.866
51785,0.37,0.192,0.886
51805,0.368,0.199,0.888
51830,0.371,0.182,0.894
51851,0.368,0.194,0.865
51871,0.353,0.198,0.868
51895,0.367,0.191,0.86
51916,0.369,0.182,0.883
51937,0.366,0.199,0.867
51961,0.371,0.181,0.884
51982,0.363,0.191,0.877
52002,0.37,0.19,0.879
52027,0.369,0.187,0.875
52047,0.365,0.198,0.908
52068,0.369,0.21,0.916
52093,0.377,0.204,0.898
52112,0.377,0.208,0.88
52133,0.357,0.175,0.855
52158,0.361,0.189,0.881
52178,0.37,0.184,0.894
52199,0.361,0.197,0.884
52223,0.373,0.179,0.873
52244,0.361,0.203,0.876
52264,0.366,0.195,0.882
52289,0.367,0.194,0.886
52309,0.378,0.18,0.879
52330,0.368,0.172,0.879
52355,0.363,0.199,0.862
52375,0.376,0.177,0.894
52395,0.355,0.199,0.875
52420,0.369,0.188,0.877
52440,0.368,0.195,0.869
52461,0.368,0.185,0.872
52486,0.362,0.19,0.88
52506,0.373,0.185,0.891
52527,0.359,0.2,0.872
52551,0.364,0.198,0.866
52571,0.367,0.183,0.893
52592,0.359,0.192,0.868
52616,0.371,0.183,0.884
52637,0.371,0.193,0.872
52658,0.374,0.187,0.878
52682,0.367,0.189,0.882
52703,0.364,0.192,0.877
52723,0.358,0.19,0.875
52747,0.365,0.192,0.882
52768,0.373,0.191,0.88
52789,0.365,0.187,0.878
52813,0.363,0.182,0.881
52834,0.367,0.191,0.87
52854,0.364,0.19,0.876
52879,0.367,0.194,0.882
52900,0.363,0.197,0.88
52924,0.368,0.192,0.877
52944,0.369,0.189,0.874
52965,0.366,0.181,0.882
52989,0.372,0.189,0.884
53010,0.361,0.185,0.873
53030,0.365,0.201,0.878
53055,0.365,0.192,0.88
53075,0.362,0.197,0.876
53095,0.366,0.185,0.883
53120,0.361,0.186,0.87
53141,0.366,0.189,0.876
53161,0.365,0.192,0.88
53186,0.374,0.191,0.867
53206,0.364,0.2,0.881
53227,0.373,0.184,0.873
53251,0.374,0.189,0.878
53272,0.368,0.186,0.873
53293,0.37,0.185,0.88
53317,0.364,0.192,0.876
53338,0.362,0.188,0.88
53358,0.36,0.194,0.86
53382,0.37,0.194,0.881
53403,0.36,0.191,0.877
53423,0.36,0.19,0.867
53448,0.365,0.195,0.88
53469,0.366,0.19,0.876
53489,0.366,0.193,0.876
53513,0.367,0.19,0.878
53535,0.366,0.188,0.88
53554,0.367,0.194,0.874
53579,0.37,0.188,0.882
53600,0.365,0.188,0.876
53620,0.363,0.19,0.878
53644,0.368,0.188,0.882
53665,0.367,0.187,0.88
53686,0.369,0.186,0.875
53710,0.366,0.193,0.869
53730,0.368,0.192,0.872
53751,0.368,0.188,0.871
53776,0.363,0.183,0.882
53796,0.362,0.193,0.876
53817,0.366,0.189,0.884
53841,0.367,0.19,0.87
53862,0.361,0.194,0.879
53882,0.361,0.192,0.881
53906,0.367,0.189,0.877
53927,0.367,0.194,0.876
53947,0.358,0.187,0.872
53972,0.364,0.191,0.881
53993,0.369,0.187,0.876
54013,0.373,0.189,0.879
54038,0.366,0.184,0.882
54058,0.373,0.184,0.874
54078,0.357,0.197,0.879
54103,0.377,0.172,0.889
54124,0.354,0.197,0.881
54144,0.379,0.182,0.884
54169,0.358,0.192,0.873
54189,0.366,0.191,0.889
54210,0.361,0.188,0.865
54235,0.365,0.178,0.866
54255,0.365,0.191,0.884
54276,0.371,0.193,0.876
54300,0.364,0.198,0.878
54321,0.366,0.19,0.876
54341,0.373,0.209,0.889
54365,0.367,0.185,0.877
54386,0.368,0.187,0.869
54407,0.366,0.189,0.873
54431,0.363,0.191,0.881
54451,0.366,0.193,0.878
54472,0.368,0.191,0.874
54496,0.365,0.186,0.877
54517,0.371,0.191,0.873
54537,0.366,0.189,0.876
54562,0.369,0.187,0.88
54583,0.367,0.198,0.889
54603,0.372,0.195,0.868
54627,0.364,0.19,0.876
54648,0.368,0.194,0.885
54668,0.365,0.185,0.882
54693,0.361,0.178,0.87
54713,0.362,0.183,0.877
54734,0.366,0.19,0.879
54759,0.369,0.188,0.875
54779,0.37,0.189,0.875
54800,0.368,0.189,0.879
54824,0.368,0.191,0.875
54844,0.36,0.194,0.884
54865,0.364,0.194,0.871
54889,0.367,0.186,0.879
54910,0.368,0.191,0.886
54931,0.372,0.183,0.875
54955,0.368,0.19,0.868
54976,0.367,0.194,0.884
54996,0.36,0.19,0.893
55021,0.365,0.192,0.872
55041,0.365,0.19,0.881
55062,0.366,0.188,0.874
55086,0.367,0.184,0.885
55107,0.367,0.187,0.877
55127,0.362,0.191,0.875
55152,0.363,0.187,0.878
55172,0.371,0.192,0.871
55193,0.368,0.19,0.881
55218,0.367,0.191,0.88
55238,0.368,0.192,0.88
55258,0.368,0.19,0.875
55283,0.365,0.191,0.874
55303,0.367,0.194,0.88
55324,0.366,0.191,0.879
55348,0.366,0.19,0.879
55369,0.368,0.188,0.878
55389,0.37,0.192,0.876
55414,0.364,0.188,0.867
55435,0.369,0.19,0.876
55455,0.368,0.193,0.88
55479,0.366,0.189,0.877
55500,0.366,0.191,0.885
55521,0.367,0.188,0.882
55545,0.368,0.192,0.886
55566,0.367,0.184,0.878
55586,0.365,0.18,0.875
55610,0.365,0.187,0.88
55631,0.373,0.194,0.875
55652,0.368,0.186,0.879
55676,0.371,0.189,0.878
55696,0.369,0.19,0.876
55717,0.366,0.185,0.878
55742,0.368,0.185,0.878
55762,0.369,0.196,0.875
55783,0.363,0.173,0.865
55807,0.365,0.185,0.897
55828,0.368,0.192,0.883
55848,0.367,0.19,0.879
55873,0.353,0.17,0.859
55893,0.374,0.205,0.901
55913,0.371,0.208,0.893
55938,0.376,0.192,0.863
55959,0.372,0.19,0.871
55979,0.364,0.178,0.872
56004,0.366,0.188,0.881
56024,0.375,0.184,0.881
56045,0.365,0.183,0.867
56069,0.369,0.186,0.88
56090,0.367,0.177,0.878
56110,0.364,0.192,0.867
56135,0.363,0.178,0.875
56156,0.372,0.189,0.881
56176,0.376,0.182,0.88
56200,0.369,0.187,0.879
56221,0.369,0.19,0.873
56241,0.365,0.192,0.875
56266,0.367,0.19,0.884
56286,0.37,0.197,0.868
56307,0.368,0.187,0.888
56331,0.37,0.187,0.885
56352,0.372,0.186,0.878
56373,0.363,0.186,0.87
56397,0.37,0.189,0.877
56417,0.371,0.197,0.875
56438,0.369,0.193,0.877
56462,0.366,0.197,0.89
56483,0.364,0.185,0.881
56503,0.36,0.2,0.873
56528,0.368,0.185,0.875
56548,0.364,0.18,0.886
56573,0.358,0.184,0.892
56594,0.372,0.179,0.886
56614,0.369,0.194,0.869
56639,0.365,0.186,0.893
56659,0.374,0.202,0.882
56679,0.371,0.178,0.861
56704,0.366,0.173,0.885
56725,0.376,0.174,0.882
56745,0.388,0.193,0.908
56770,0.353,0.223,0.885
56790,0.384,0.178,0.87
56811,0.348,0.203,0.861
56835,0.371,0.177,0.88
56856,0.371,0.184,0.888
56876,0.367,0.186,0.883
56901,0.382,0.18,0.863
56921,0.371,0.185,0.88
56942,0.371,0.182,0.875
56966,0.355,0.201,0.875
56986,0.392,0.176,0.921
57007,0.361,0.186,0.889
57032,0.385,0.162,0.874
57052,0.365,0.186,0.856
57073,0.369,0.185,0.851
57097,0.378,0.183,0.864
57118,0.377,0.174,0.894
57138,0.372,0.181,0.874
57162,0.329,0.208,0.904
57183,0.399,0.091,0.999
57204,0.411,0.174,0.818
57228,0.456,0.162,0.799
57249,0.311,0.266,0.795
57270,0.453,0.129,0.87
57294,0.372,0.187,0.878
57314,0.416,0.152,0.872
57335,0.371,0.208,0.855
57359,0.398,0.183,0.852
57380,0.378,0.185,0.87
57400,0.424,0.137,0.911
57425,0.384,0.18,0.873
57445,0.412,0.16,0.909
57466,0.364,0.214,0.834
57490,0.398,0.168,0.873
57511,0.373,0.169,0.899
57532,0.405,0.164,0.857
57556,0.401,0.18,0.851
57576,0.393,0.208,0.862
57597,0.406,0.203,0.79
57622,0.376,0.191,0.857
57643,0.436,0.141,0.868
57662,0.383,0.187,0.872
57687,0.404,0.186,0.865
57708,0.387,0.189,0.882
57728,0.396,0.173,0.888
57752,0.423,0.163,0.867
57773,0.389,0.204,0.846
57794,0.396,0.183,0.871
57818,0.396,0.161,0.888
57839,0.399,0.173,0.88
57859,0.403,0.167,0.884
57884,0.388,0.186,0.855
57904,0.405,0.174,0.87
57925,0.373,0.179,0.904
57949,0.197,0.075,0.949
57970,0.279,0.094,0.665
57994,0.31,-0.046,0.88
58015,0.342,0.191,0.945
58035,0.386,0.187,0.891
58060,0.384,0.182,0.88
58080,0.382,0.172,0.897
58101,0.4,0.174,0.861
58125,0.376,0.198,0.858
58146,0.392,0.181,0.873
58166,0.373,0.188,0.87
58191,0.407,0.172,0.875
58211,0.383,0.183,0.876
58232,0.38,0.195,0.875
58256,0.391,0.174,0.867
58277,0.382,0.187,0.878
58297,0.389,0.175,0.88
58322,0.391,0.175,0.874
58343,0.382,0.179,0.858
58363,0.393,0.177,0.869
58387,0.385,0.175,0.866
58408,0.398,0.179,0.866
58428,0.384,0.183,0.874
58453,0.418,0.161,0.865
58474,0.354,0.196,0.891
58494,0.437,0.14,0.886
58519,0.376,0.184,0.872
58539,0.388,0.186,0.851
58560,0.392,0.18,0.862
58584,0.387,0.178,0.879
58605,0.408,0.16,0.881
58625,0.371,0.186,0.871
58650,0.617,0.652,1.123
58670,0.44,0.183,0.721
58691,0.455,0.302,0.907
58715,0.363,0.205,0.862
58736,0.368,0.207,0.87
58756,0.382,0.181,0.875
58780,0.388,0.168,0.889
58801,0.387,0.171,0.886
58822,0.378,0.185,0.865
58846,0.373,0.192,0.856
58867,0.378,0.181,0.877
58887,0.385,0.178,0.884
58912,0.389,0.179,0.879
58932,0.379,0.191,0.87
58953,0.379,0.188,0.873
58977,0.376,0.184,0.869
58998,0.385,0.172,0.882
59018,0.394,0.204,0.871
59043,0.401,0.191,0.867
59063,0.367,0.207,0.848
59084,0.367,0.181,0.917
59108,0.716,0.297,1.228
59129,0.188,0.004,0.744
59149,0.631,0.084,0.856
59174,0.423,0.331,0.926
59194,0.327,0.036,0.833
59215,0.32,0.237,0.842
59239,0.41,0.14,0.923
59260,0.378,0.172,0.902
59280,0.383,0.175,0.863
59305,0.375,0.193,0.862
59326,0.372,0.214,0.893
59346,0.361,0.2,0.893
59371,0.366,0.171,0.912
59391,0.365,0.172,0.907
59411,0.376,0.187,0.86
59436,0.345,0.217,0.866
59457,0.389,0.176,0.85
59477,0.381,0.165,0.879
59502,0.4,0.157,0.875
59522,0.361,0.219,0.818
59543,0.391,0.175,0.872
59567,0.369,0.168,0.89
59588,0.403,0.152,0.892
59608,0.35,0.192,0.885
59633,0.375,0.176,0.873
59653,0.301,0.229,0.871
59674,0.386,0.15,0.92
59698,0.354,0.189,0.877
59719,0.39,0.162,0.864
59739,0.372,0.182,0.859
59763,0.381,0.168,0.879
59784,0.373,0.173,0.904
59805,0.39,0.161,0.886
59829,0.34,0.199,0.882
59850,0.383,0.164,0.884
59870,0.365,0.182,0.891
59895,0.377,0.161,0.887
59915,0.368,0.181,0.875
59936,0.361,0.19,0.865
59960,0.363,0.181,0.874
59981,0.371,0.173,0.877
60001,0.372,0.18,0.879
60026,0.375,0.168,0.883
60046,0.368,0.173,0.875
60067,0.366,0.176,0.873
60091,0.37,0.186,0.883
60112,0.371,0.18,0.876
60132,0.369,0.179,0.873
60157,0.367,0.177,0.874
60177,0.38,0.18,0.873
60198,0.371,0.187,0.871
60222,0.361,0.179,0.871
60243,0.378,0.176,0.878
60263,0.365,0.18,0.885
60288,0.365,0.178,0.88
60309,0.36,0.181,0.874
60329,0.375,0.17,0.885
60353,0.364,0.173,0.878
60374,0.368,0.178,0.878
60395,0.365,0.186,0.898
60419,0.365,0.188,0.874
60440,0.362,0.177,0.882
60460,0.379,0.18,0.871
60485,0.378,0.177,0.866
60505,0.357,0.189,0.88
60526,0.373,0.172,0.879
60550,0.362,0.18,0.877
60571,0.377,0.174,0.887
60591,0.37,0.188,0.881
60616,0.369,0.176,0.875
60636,0.371,0.187,0.887
60656,0.387,0.161,0.885
60681,0.364,0.169,0.901
60701,0.367,0.178,0.879
60722,0.368,0.184,0.867
60747,0.365,0.177,0.879
60767,0.383,0.166,0.891
60787,0.36,0.183,0.879
60812,0.389,0.168,0.883
60832,0.341,0.201,0.869
60853,0.357,0.166,0.935
60878,0.36,0.169,0.91
60898,0.383,0.174,0.867
60918,0.364,0.183,0.866
60943,0.367,0.188,0.877
60964,0.372,0.172,0.884
60984,0.361,0.176,0.885
61009,0.372,0.179,0.894
61029,0.378,0.182,0.851
61054,0.373,0.178,0.88
61075,0.367,0.174,0.881
61095,0.369,0.185,0.877
61119,0.366,0.178,0.88
61140,0.368,0.182,0.869
61160,0.378,0.173,0.885
61185,0.372,0.177,0.88
61205,0.382,0.164,0.889
61226,0.362,0.181,0.874
61250,0.365,0.178,0.893
61271,0.371,0.182,0.878
61292,0.371,0.178,0.881
61316,0.37,0.183,0.881
61336,0.372,0.181,0.878
61357,0.366,0.182,0.872
61381,0.365,0.18,0.873
61402,0.374,0.169,0.883
61422,0.372,0.176,0.87
61447,0.365,0.176,0.874
61467,0.373,0.174,0.887
61488,0.385,0.173,0.882
61512,0.369,0.186,0.868
61533,0.366,0.177,0.879
61553,0.364,0.186,0.879
61578,0.365,0.177,0.88
61599,0.369,0.171,0.882
61619,0.365,0.18,0.872
61643,0.368,0.181,0.882
61664,0.375,0.172,0.883
61685,0.373,0.173,0.875
61709,0.368,0.179,0.875
61729,0.375,0.178,0.878
61750,0.37,0.179,0.876
61775,0.378,0.172,0.881
61795,0.373,0.178,0.868
61816,0.376,0.179,0.88
61841,0.375,0.173,0.879
61861,0.369,0.181,0.868
61881,0.371,0.179,0.872
61906,0.388,0.167,0.886
61926,0.369,0.179,0.873
61947,0.376,0.176,0.867
61971,0.371,0.176,0.874
61992,0.374,0.17,0.881
62012,0.371,0.18,0.88
62037,0.372,0.183,0.886
62058,0.369,0.174,0.879
62078,0.373,0.176,0.879
62102,0.375,0.175,0.885
62123,0.369,0.182,0.874
62143,0.368,0.178,0.881
62168,0.392,0.167,0.881
62189,0.358,0.181,0.88
62210,0.377,0.179,0.878
62233,0.365,0.185,0.879
62254,0.376,0.17,0.879
62274,0.366,0.182,0.88
62299,0.385,0.166,0.87
62319,0.375,0.186,0.87
62340,0.383,0.171,0.889
62364,0.376,0.17,0.882
62385,0.381,0.176,0.874
62406,0.356,0.188,0.881
62430,0.368,0.176,0.874
62451,0.365,0.172,0.886
62471,0.377,0.17,0.879
62495,0.366,0.17,0.893
62516,0.36,0.189,0.896
62537,0.377,0.17,0.891
62561,0.372,0.172,0.884
62581,0.384,0.174,0.861
62602,0.363,0.183,0.873
62626,0.371,0.17,0.881
62647,0.376,0.174,0.874
62668,0.363,0.185,0.866
62692,0.373,0.177,0.872
62712,0.367,0.167,0.883
62733,0.374,0.174,0.886
62758,0.368,0.184,0.884
62778,0.378,0.176,0.872
62799,0.371,0.182,0.881
62823,0.372,0.169,0.878
62844,0.374,0.176,0.882
62864,0.376,0.177,0.877
62889,0.372,0.178,0.873
62909,0.376,0.175,0.875
62930,0.374,0.182,0.867
62954,0.38,0.168,0.88
62974,0.363,0.184,0.879
62995,0.387,0.175,0.869
63019,0.366,0.174,0.882
63041,0.373,0.167,0.877
63061,0.364,0.187,0.878
63085,0.381,0.167,0.884
63106,0.377,0.176,0.88
63127,0.373,0.175,0.877
63151,0.369,0.172,0.886
63171,0.375,0.171,0.89
63192,0.374,0.18,0.881
63216,0.374,0.176,0.879
63237,0.37,0.176,0.881
63257,0.372,0.169,0.879
63282,0.384,0.17,0.883
63303,0.376,0.181,0.87
63323,0.374,0.174,0.865
63347,0.365,0.176,0.886
63368,0.379,0.165,0.891
63389,0.373,0.173,0.884
63413,0.368,0.183,0.891
63433,0.38,0.168,0.89
63454,0.362,0.182,0.872
63478,0.387,0.158,0.89
63499,0.366,0.182,0.874
63519,0.361,0.183,0.876
63544,0.37,0.181,0.883
63565,0.387,0.169,0.883
63585,0.368,0.179,0.873
63609,0.371,0.181,0.877
63630,0.366,0.182,0.884
63650,0.382,0.173,0.878
63675,0.371,0.17,0.876
63695,0.379,0.172,0.884
63716,0.377,0.184,0.874
63740,0.366,0.191,0.867
63761,0.386,0.164,0.893
63782,0.345,0.199,0.875
63806,0.421,0.143,0.883
63826,0.36,0.194,0.87
63847,0.377,0.18,0.868
63872,0.372,0.169,0.879
63892,0.365,0.175,0.889
63912,0.377,0.161,0.88
63938,0.363,0.185,0.87
63958,0.38,0.177,0.877
63978,0.371,0.176,0.86
64003,0.381,0.172,0.879
64023,0.37,0.173,0.871
64044,0.303,0.283,0.761
64069,0.367,0.174,0.833
64089,0.395,0.182,0.877
64109,0.424,0.179,0.844
64134,0.353,0.214,0.839
64155,0.396,0.163,0.841
64175,0.372,0.186,0.883
64200,0.396,0.167,0.897
64220,0.377,0.191,0.867
64240,0.396,0.164,0.884
64265,0.384,0.165,0.871
64285,0.37,0.173,0.887
64306,0.396,0.154,0.882
64330,0.392,0.178,0.871
64351,0.376,0.181,0.87
64371,0.386,0.176,0.868
64396,0.378,0.171,0.865
64417,0.383,0.168,0.877
64437,0.393,0.159,0.875
64461,0.379,0.167,0.876
64482,0.384,0.167,0.869
64502,0.391,0.174,0.87
64527,0.39,0.167,0.873
64547,0.395,0.166,0.975
64568,0.392,0.18,0.805
64593,0.371,0.187,0.949
64613,0.381,0.028,0.904
64634,0.388,0.15,0.86
64658,0.371,0.178,0.87
64678,0.363,0.198,0.889
64703,0.367,0.181,0.876
64723,0.406,0.139,0.897
64744,0.389,0.171,0.867
64769,0.374,0.187,0.844
64789,0.365,0.184,0.862
64809,0.391,0.15,0.89
64834,0.398,0.159,0.885
64855,0.38,0.182,0.871
64876,0.349,0.205,0.854
64900,0.38,0.158,0.88
64920,0.396,0.147,0.897
64941,0.388,0.162,0.881
64965,0.354,0.201,0.87
64986,0.382,0.171,0.877
65006,0.372,0.169,0.878
65030,0.388,0.154,0.89
65051,0.378,0.169,0.872
65072,0.369,0.182,0.874
65096,0.4,0.151,0.871
65117,0.382,0.165,0.878
65137,0.381,0.165,0.877
65162,0.38,0.171,0.876
65182,0.386,0.162,0.875
65203,0.404,0.269,0.908
65227,0.376,0.188,0.859
65248,0.376,0.172,0.867
65269,0.375,0.171,0.874
65293,0.375,0.171,0.872
65313,0.372,0.176,0.88
65334,0.381,0.166,0.876
65359,0.383,0.16,0.875
65379,0.375,0.174,0.882
65400,0.382,0.161,0.876
65424,0.371,0.173,0.866
65444,0.39,0.17,0.876
65465,0.375,0.172,0.887
65489,0.385,0.164,0.896
65510,0.374,0.17,0.875
65530,0.372,0.174,0.865
65555,0.39,0.168,0.87
65576,0.368,0.177,0.874
65596,0.395,0.163,0.88
65621,0.372,0.169,0.876
65641,0.383,0.166,0.881
65662,0.374,0.169,0.885
65686,0.372,0.171,0.877
65707,0.375,0.166,0.882
65727,0.378,0.171,0.873
65752,0.377,0.175,0.875
65772,0.381,0.167,0.879
65793,0.376,0.172,0.872
65817,0.375,0.168,0.88
65838,0.374,0.17,0.882
65858,0.377,0.172,0.883
65883,0.37,0.171,0.871
65903,0.381,0.188,0.867
65924,0.373,0.173,0.874
65948,0.382,0.165,0.882
65969,0.374,0.171,0.883
65989,0.377,0.172,0.874
66013,0.376,0.176,0.884
66034,0.381,0.171,0.867
66055,0.354,0.189,0.874
66079,0.371,0.178,0.874
66100,0.365,0.164,0.891
66120,0.385,0.17,0.881
66145,0.367,0.183,0.866
66165,0.399,0.156,0.878
66186,0.355,0.196,0.865
66210,0.401,0.162,0.882
66231,0.37,0.18,0.872
66252,0.372,0.169,0.871
66276,0.385,0.163,0.876
66296,0.372,0.175,0.885
66317,0.375,0.164,0.873
66342,0.365,0.167,0.882
66362,0.38,0.168,0.885
66383,0.369,0.171,0.883
66407,0.385,0.171,0.879
66428,0.379,0.167,0.877
66448,0.375,0.167,0.876
66473,0.382,0.167,0.887
66493,0.375,0.167,0.874
66513,0.379,0.17,0.882
66538,0.368,0.176,0.875
66559,0.383,0.166,0.886
66579,0.375,0.174,0.876
66604,0.384,0.16,0.879
66624,0.374,0.17,0.884
66644,0.377,0.168,0.883
66669,0.39,0.157,0.901
66690,0.38,0.17,0.867
66710,0.371,0.176,0.872
66735,0.377,0.16,0.875
66755,0.377,0.167,0.874
66776,0.374,0.174,0.885
66800,0.375,0.173,0.877
66821,0.37,0.181,0.873
66842,0.38,0.167,0.878
66866,0.368,0.185,0.865
66886,0.395,0.163,0.875
66907,0.366,0.2,0.893
66931,0.389,0.169,0.894
66952,0.382,0.172,0.879
66972,0.379,0.164,0.881
66996,0.381,0.166,0.885
67017,0.366,0.188,0.892
67038,0.384,0.156,0.897
67062,0.369,0.173,0.884
67083,0.393,0.156,0.886
67103,0.366,0.18,0.865
67128,0.392,0.164,0.886
67148,0.375,0.176,0.882
67169,0.381,0.163,0.887
67193,0.376,0.183,0.865
67214,0.382,0.18,0.892
67234,0.381,0.159,0.892
67259,0.375,0.179,0.854
67279,0.381,0.153,0.882
67300,0.384,0.166,0.894
67325,0.36,0.184,0.865
67345,0.4,0.144,0.881
67366,0.352,0.189,0.88
67390,0.39,0.155,0.886
67410,0.371,0.185,0.877
67431,0.395,0.166,0.893
67456,0.373,0.177,0.869
67476,0.381,0.167,0.881
67496,0.372,0.168,0.88
67521,0.404,0.16,0.862
67542,0.342,0.201,0.87
67562,0.404,0.152,0.876
67587,0.377,0.163,0.879
67607,0.375,0.177,0.871
67627,0.383,0.171,0.879
67652,0.39,0.165,0.876
67673,0.371,0.179,0.872
67693,0.389,0.157,0.882
67717,0.37,0.179,0.881
67738,0.382,0.169,0.882
67759,0.375,0.175,0.884
67783,0.394,0.163,0.875
67804,0.38,0.176,0.872
67824,0.372,0.177,0.875
67849,0.396,0.157,0.87
67869,0.371,0.175,0.87
67890,0.386,0.158,0.871
67914,0.381,0.171,0.865
67935,0.398,0.158,0.864
67955,0.367,0.183,0.864
67980,0.398,0.155,0.888
68000,0.377,0.173,0.88
68021,0.391,0.171,0.869
68045,0.377,0.177,0.842
68066,0.399,0.153,0.87
68086,0.358,0.197,0.866
68111,0.412,0.141,0.887
68131,0.359,0.184,0.874
68152,0.403,0.157,0.88
68176,0.383,0.183,0.848
68197,0.389,0.166,0.88
68217,0.395,0.164,0.873
68242,0.377,0.171,0.867
68262,0.376,0.171,0.867
68283,0.39,0.166,0.875
68308,0.379,0.171,0.881
68328,0.386,0.159,0.89
68352,0.38,0.174,0.883
68373,0.39,0.164,0.885
68393,0.38,0.172,0.867
68418,0.383,0.164,0.883
68439,0.383,0.169,0.892
68459,0.374,0.177,0.88
68484,0.388,0.155,0.877
68505,0.366,0.179,0.871
68525,0.396,0.165,0.873
68549,0.381,0.176,0.875
68570,0.401,0.156,0.875
68590,0.369,0.184,0.873
68614,0.388,0.17,0.864
68635,0.381,0.171,0.874
68655,0.388,0.168,0.882
68680,0.39,0.165,0.879
68701,0.381,0.172,0.873
68721,0.38,0.168,0.885
68745,0.38,0.171,0.88
68766,0.403,0.156,0.871
68787,0.353,0.186,0.858
68811,0.395,0.159,0.885
68831,0.377,0.169,0.875
68852,0.406,0.149,0.876
68877,0.364,0.188,0.855
68897,0.396,0.156,0.871
68917,0.361,0.185,0.868
68942,0.373,0.171,0.893
68963,0.391,0.151,0.895
68983,0.376,0.17,0.869
69008,0.382,0.172,0.862
69028,0.372,0.177,0.88
69049,0.396,0.159,0.886
69073,0.387,0.169,0.883
69094,0.386,0.164,0.88
69114,0.368,0.172,0.868
69139,0.387,0.186,0.883
69159,0.385,0.167,0.891
69180,0.383,0.176,0.88
69205,0.386,0.165,0.868
69225,0.406,0.159,0.773
69245,0.382,0.164,0.872
69270,0.379,0.176,0.869
69290,0.391,0.162,0.881
69311,0.378,0.178,0.875
69336,0.372,0.153,0.852
69357,0.394,0.16,0.873
69376,0.38,0.169,0.877
69401,0.386,0.172,0.881
69422,0.384,0.173,0.877
69442,0.381,0.171,0.875
69467,0.389,0.165,0.875
69487,0.374,0.168,0.87
69507,0.382,0.174,0.875
69532,0.382,0.167,0.875
69552,0.373,0.171,0.873
69573,0.381,0.162,0.865
69597,0.38,0.172,0.875
69618,0.379,0.169,0.875
69639,0.378,0.17,0.874
69663,0.38,0.166,0.883
69684,0.381,0.167,0.888
69704,0.377,0.164,0.879
69728,0.379,0.166,0.879
69749,0.379,0.168,0.881
69770,0.381,0.175,0.88
69794,0.376,0.167,0.879
69815,0.377,0.171,0.882
69835,0.378,0.169,0.873
69860,0.377,0.168,0.883
69880,0.376,0.177,0.87
69901,0.388,0.167,0.879
69925,0.377,0.169,0.873
69946,0.377,0.166,0.875
69966,0.38,0.163,0.885
69991,0.378,0.167,0.865
70011,0.387,0.166,0.878
70032,0.37,0.172,0.881
70056,0.39,0.162,0.877
70077,0.37,0.172,0.872
70097,0.383,0.168,0.882
70122,0.388,0.165,0.874
70142,0.371,0.172,0.89
70163,0.375,0.167,0.887
70187,0.371,0.177,0.869
70208,0.395,0.152,0.872
70228,0.375,0.173,0.885
70253,0.367,0.177,0.873
70273,0.391,0.159,0.881
70294,0.384,0.154,0.893
70318,0.368,0.177,0.865
70339,0.376,0.178,0.857
70359,0.375,0.17,0.887
70384,0.385,0.157,0.887
70405,0.357,0.182,0.906
70425,0.398,0.155,0.867
70450,0.368,0.172,0.867
70470,0.382,0.174,0.871
70490,0.385,0.165,0.895
70515,0.405,0.15,0.886
70535,0.367,0.193,0.871
70556,0.424,0.143,0.88
70580,0.295,0.231,0.891
70601,0.462,0.085,0.955
70622,0.465,0.328,0.843
70646,0.385,0.141,0.879
70667,0.358,0.208,0.859
70687,0.404,0.147,0.875
70711,0.348,0.171,0.885
70732,0.426,0.11,0.914
70753,0.345,0.192,0.852
70777,0.393,0.169,0.852
70798,0.378,0.162,0.88
70818,0.398,0.144,0.894
70843,0.446,0.109,0.891
70863,0.357,0.198,0.839
70884,0.392,0.158,0.861
70908,0.377,0.162,0.879
70929,0.399,0.141,0.887
70949,0.384,0.158,0.884
70973,0.384,0.161,0.873
70994,0.38,0.157,0.883
71015,0.39,0.152,0.885
71039,0.376,0.164,0.886
71060,0.392,0.154,0.878
71080,0.364,0.172,0.872
71105,0.4,0.15,0.874
71125,0.377,0.167,0.877
71146,0.389,0.154,0.864
71170,0.378,0.162,0.878
71191,0.382,0.155,0.894
71211,0.394,0.149,0.886
71236,0.374,0.179,0.862
71256,0.373,0.158,0.878
71277,0.399,0.143,0.884
71302,0.384,0.165,0.867
71323,0.39,0.149,0.892
71342,0.385,0.167,0.877
71367,0.383,0.166,0.869
71388,0.385,0.147,0.883
71409,0.38,0.15,0.883
71433,0.396,0.149,0.876
71454,0.387,0.165,0.872
71474,0.383,0.16,0.875
71498,0.389,0.143,0.888
71518,0.379,0.155,0.866
71539,0.385,0.168,0.868
71563,0.381,0.163,0.865
71585,0.374,0.165,0.872
71605,0.394,0.152,0.887
71629,0.389,0.15,0.886
71650,0.376,0.167,0.87
71670,0.397,0.152,0.878
71694,0.375,0.166,0.877
71715,0.392,0.151,0.882
71736,0.383,0.158,0.873
71760,0.378,0.17,0.866
71781,0.392,0.15,0.876
71801,0.38,0.157,0.875
71826,0.385,0.155,0.878
71846,0.374,0.162,0.877
71867,0.391,0.153,0.876
71891,0.375,0.156,0.884
71911,0.386,0.156,0.882
71932,0.382,0.156,0.87
71957,0.384,0.164,0.878
71977,0.389,0.157,0.878
72002,0.391,0.151,0.879
72022,0.389,0.155,0.867
72043,0.376,0.159,0.87
72067,0.37,0.159,0.886
72088,0.382,0.155,0.881
72108,0.387,0.152,0.885
72133,0.38,0.159,0.884
72153,0.38,0.165,0.873
72174,0.385,0.168,0.88
72198,0.388,0.155,0.872
72219,0.384,0.158,0.885
72240,0.382,0.163,0.871
72264,0.386,0.162,0.875
72285,0.375,0.158,0.875
72305,0.385,0.157,0.883
72329,0.378,0.167,0.872
72350,0.396,0.145,0.876
72371,0.379,0.173,0.852
72395,0.375,0.166,0.878
72416,0.39,0.15,0.88
72436,0.378,0.154,0.874
72460,0.365,0.168,0.871
72481,0.377,0.157,0.878
72501,0.378,0.161,0.873
72526,0.382,0.158,0.879
72546,0.382,0.156,0.876
72567,0.385,0.155,0.881
72592,0.381,0.157,0.87
72612,0.385,0.162,0.87
72633,0.38,0.165,0.882
72657,0.373,0.162,0.878
72678,0.384,0.149,0.89
72698,0.379,0.161,0.88
72722,0.377,0.151,0.875
72743,0.372,0.164,0.872
72764,0.383,0.147,0.89
72788,0.384,0.161,0.884
72809,0.375,0.166,0.874
72829,0.382,0.157,0.874
72854,0.378,0.157,0.888
72874,0.39,0.144,0.892
72894,0.386,0.153,0.881
72919,0.378,0.156,0.878
72940,0.391,0.156,0.875
72960,0.374,0.165,0.884
72985,0.385,0.156,0.876
73006,0.378,0.156,0.87
73026,0.38,0.156,0.884
73050,0.378,0.16,0.878
73071,0.385,0.162,0.882
73092,0.383,0.162,0.879
73116,0.382,0.155,0.883
73137,0.385,0.154,0.867
73157,0.383,0.158,0.876
73181,0.382,0.152,0.875
73202,0.385,0.154,0.873
73223,0.377,0.159,0.878
73247,0.38,0.16,0.888
73268,0.381,0.153,0.888
73288,0.376,0.164,0.881
73312,0.378,0.16,0.881
73333,0.396,0.153,0.878
73354,0.375,0.158,0.882
73378,0.385,0.153,0.896
73399,0.371,0.174,0.857
73419,0.392,0.15,0.881
73443,0.382,0.16,0.879
73464,0.383,0.16,0.879
73485,0.38,0.168,0.888
73509,0.382,0.154,0.882
73529,0.375,0.158,0.875
73550,0.383,0.158,0.871
73574,0.377,0.156,0.874
73595,0.384,0.156,0.883
73616,0.386,0.151,0.877
73640,0.374,0.159,0.871
73661,0.379,0.154,0.878
73681,0.38,0.158,0.881
73705,0.387,0.144,0.881
73726,0.381,0.157,0.872
73747,0.375,0.169,0.862
73771,0.383,0.163,0.883
73792,0.387,0.163,0.87
73812,0.38,0.153,0.878
73837,0.393,0.162,0.853
73857,0.372,0.166,0.868
73878,0.387,0.149,0.872
73902,0.386,0.157,0.877
73923,0.391,0.145,0.898
73943,0.406,0.135,0.883
73968,0.415,0.132,0.863
73988,0.389,0.131,0.885
74009,0.403,0.121,0.879
74033,0.38,0.159,0.87
74054,0.393,0.149,0.878
74074,0.395,0.133,0.878
74099,0.4,0.132,0.884
74120,0.398,0.142,0.874
74140,0.378,0.156,0.856
74165,0.392,0.139,0.893
74185,0.402,0.129,0.888
74206,0.39,0.141,0.881
74230,0.392,0.146,0.871
74251,0.393,0.145,0.863
74271,0.397,0.142,0.875
74295,0.403,0.135,0.885
74316,0.394,0.137,0.88
74337,0.387,0.152,0.872
74361,0.416,0.121,0.886
74382,0.394,0.132,0.877
74402,0.395,0.139,0.868
74427,0.389,0.146,0.869
74447,0.404,0.137,0.886
74468,0.404,0.135,0.884
74492,0.392,0.135,0.877
74512,0.402,0.139,0.877
74533,0.395,0.136,0.878
74557,0.397,0.136,0.879
74578,0.396,0.139,0.882
74599,0.395,0.137,0.877
74623,0.391,0.135,0.873
74644,0.396,0.14,0.875
74664,0.397,0.131,0.877
74689,0.392,0.141,0.877
74709,0.4,0.135,0.872
74730,0.386,0.142,0.877
74754,0.399,0.134,0.877
74775,0.399,0.135,0.871
74795,0.399,0.131,0.883
74820,0.387,0.145,0.87
74840,0.393,0.134,0.881
74861,0.392,0.135,0.885
74885,0.397,0.129,0.88
74906,0.39,0.139,0.863
74926,0.399,0.129,0.87
74951,0.392,0.144,0.885
74971,0.393,0.13,0.875
74992,0.389,0.133,0.887
75016,0.397,0.137,0.879
75037,0.399,0.139,0.872
75058,0.389,0.129,0.872
75082,0.404,0.138,0.882
75103,0.394,0.14,0.871
75123,0.399,0.136,0.878
75148,0.39,0.141,0.87
75168,0.391,0.142,0.88
75189,0.391,0.133,0.882
75213,0.394,0.134,0.875
75234,0.394,0.142,0.875
75254,0.391,0.136,0.865
75278,0.396,0.131,0.881
75299,0.387,0.143,0.867
75320,0.404,0.14,0.879
75344,0.386,0.142,0.876
75366,0.39,0.137,0.876
75385,0.397,0.134,0.875
75409,0.39,0.133,0.879
75430,0.399,0.133,0.871
75451,0.4,0.137,0.87
75475,0.39,0.149,0.87
75495,0.403,0.136,0.887
75517,0.395,0.138,0.877
75540,0.386,0.144,0.876
75561,0.398,0.132,0.871
75586,0.391,0.136,0.878
75607,0.397,0.133,0.874
75627,0.385,0.139,0.873
75651,0.374,0.145,0.896
75672,0.406,0.124,0.895
75692,0.385,0.144,0.879
75717,0.388,0.144,0.877
75737,0.395,0.132,0.882
75758,0.385,0.139,0.877
75782,0.391,0.139,0.881
75803,0.39,0.137,0.874
75823,0.39,0.139,0.866
75848,0.405,0.133,0.883
75868,0.389,0.14,0.882
75889,0.386,0.132,0.881
75913,0.385,0.138,0.873
75934,0.389,0.137,0.879
75954,0.392,0.14,0.875
75978,0.397,0.127,0.876
76000,0.383,0.149,0.88
76020,0.391,0.138,0.873
76044,0.377,0.145,0.878
76065,0.391,0.135,0.892
76086,0.395,0.126,0.892
76110,0.393,0.137,0.875
76130,0.386,0.144,0.879
76151,0.382,0.151,0.867
76175,0.392,0.136,0.882
76196,0.411,0.118,0.879
76217,0.375,0.156,0.869
76241,0.379,0.156,0.857
76261,0.379,0.144,0.888
76282,0.423,0.103,0.889
76307,0.372,0.148,0.872
76327,0.391,0.157,0.84
76347,0.37,0.153,0.868
76372,0.28,0.215,0.7
76393,0.42,0.022,0.977
76413,0.78,0.41,1.015
76438,-0.044,-0.069,0.796
76458,0.381,0.037,1.013
76483,0.292,-0.213,1.123
76507,0.279,-0.13,1.221
76527,0.283,0.356,0.837
76552,0.037,-0.132,0.439
76573,0.35,0.125,0.926
76593,0.487,0.043,1.02
76618,0.387,0.078,0.957
76638,0.345,0.174,0.822
76659,0.322,0.221,0.797
76683,0.358,0.147,0.868
76704,0.395,0.087,0.943
76724,0.37,0.108,0.924
76749,0.387,0.129,0.885
76769,0.292,0.223,0.838
76790,0.317,0.351,0.813
76814,0.376,0.071,0.941
76835,0.341,0.119,1.042
76855,0.135,0.297,0.492
76880,0.186,0.186,0.45
76900,0.104,-0.222,0.874
76925,0.554,-0.046,1.015
76945,0.257,0.134,0.793
76970,0.303,-0.027,1.067
76990,0.452,0.136,0.708
77015,0.365,-0.037,0.896
77035,0.342,-0.154,1.045
77060,0.368,0.231,0.835
77082,0.235,0.245,0.521
77101,0.56,-0.31,2.0
77126,0.465,0.08,0.857
77146,0.382,0.167,0.739
77167,0.36,0.175,0.799
77192,0.259,0.255,0.962
77212,0.278,0.063,0.922
77232,0.322,0.088,1.046
77257,0.245,0.094,0.923
77277,0.309,0.113,0.772
77302,0.446,-0.082,0.964
77322,0.19,0.137,1.03
77343,0.371,0.008,0.911
77367,0.309,0.029,0.894
77388,0.329,0.028,0.893
77408,0.271,0.045,0.924
77433,0.367,0.172,0.658
77454,0.196,0.133,0.933
77478,0.426,-0.089,1.027
77499,0.244,0.144,0.824
77519,0.181,0.198,0.831
77543,0.285,0.014,0.966
77564,0.245,-0.019,0.917
77589,0.317,0.052,0.896
77609,0.316,0.036,0.895
77629,0.309,0.031,0.889
77654,0.319,-0.004,0.833
77675,0.299,0.044,0.919
77699,0.31,-0.025,0.816
77720,0.286,-0.044,0.83
77744,0.302,0.038,0.913
77766,0.308,0.021,0.932
77786,0.298,0.031,0.954
77810,0.3,0.047,0.917
77830,0.312,0.037,0.898
77851,0.282,0.076,0.953
77875,0.325,0.078,0.815
77895,0.338,0.064,0.87
77916,0.29,0.069,0.973
77941,0.314,0.078,0.917
77961,0.313,0.092,0.883
77982,0.34,0.059,0.911
78006,0.325,0.036,0.973
78027,0.342,0.056,0.91
78047,0.323,0.103,0.875
78072,0.363,0.066,0.849
78092,0.295,0.095,0.882
78113,0.363,0.016,0.996
78137,0.282,0.117,0.887
78158,0.072,-0.111,0.952
78183,0.136,-0.012,0.629
78203,0.319,0.015,1.016
78227,0.351,0.046,0.893
78248,0.303,0.085,0.881
78269,0.315,0.075,0.899
78293,0.32,0.079,0.89
78313,0.357,0.023,0.945
78334,0.288,0.085,0.941
78358,0.297,0.071,0.984
78379,0.341,0.089,0.873
78400,0.288,0.112,0.891
78424,0.348,0.055,0.924
78444,0.333,0.096,0.867
78465,0.295,0.097,0.914
78490,0.354,0.061,0.924
78510,0.311,0.093,0.9
78530,0.343,0.075,0.91
78555,0.326,0.078,0.942
78576,0.338,0.087,0.923
78596,0.311,0.117,0.897
78621,0.345,0.099,0.88
78641,0.334,0.106,0.899
78661,0.341,0.109,0.875
78686,0.335,0.113,0.895
78708,0.323,0.12,0.873
78727,0.342,0.08,0.904
78752,0.334,0.08,0.927
78772,0.313,0.125,0.877
78793,0.344,0.078,0.923
78817,0.346,0.095,0.9
78838,0.31,0.137,0.863
78858,0.356,0.119,0.81
78883,0.326,0.106,0.913
78903,0.282,0.122,0.938
78924,0.368,0.069,0.896
78948,0.329,0.096,0.918
78969,0.317,0.12,0.869
78989,0.354,0.065,0.927
79014,0.316,0.112,0.889
79034,0.355,0.07,0.912
79055,0.308,0.117,0.887
79079,0.333,0.065,0.955
79100,0.322,0.095,0.907
79121,0.311,0.123,0.875
79145,0.345,0.054,0.959
79165,0.33,0.095,0.913
79186,0.293,0.137,0.855
79210,0.366,0.07,0.898
79231,0.316,0.09,0.922
79252,0.321,0.102,0.894
79276,0.35,0.055,0.94
79296,0.328,0.115,0.865
79317,0.325,0.11,0.869
79342,0.336,0.062,0.969
79362,0.335,0.095,0.917
79383,0.297,0.131,0.909
79407,0.354,0.084,0.904
79427,0.312,0.103,0.925
79448,0.339,0.097,0.9
79472,0.333,0.107,0.895
79493,0.29,0.125,0.932
79513,0.364,0.067,0.944
79538,0.326,0.121,0.889
79559,0.328,0.116,0.9
79579,0.345,0.09,0.924
79604,0.328,0.124,0.892
79624,0.343,0.103,0.905
79644,0.339,0.107,0.917
79669,0.35,0.137,0.811
79690,0.323,0.154,0.813
79710,0.402,0.059,0.917
79735,0.294,0.158,0.891
79755,0.327,0.111,0.91
79776,0.354,0.11,0.911
79800,0.393,0.113,0.833
79821,0.37,0.124,0.854
79841,0.366,0.087,0.92
79866,0.32,0.127,0.884
79886,0.326,0.106,0.924
79907,0.316,0.14,0.883
79931,0.386,0.037,1.005
79952,0.318,0.118,0.919
79972,0.341,0.119,0.874
79996,0.331,0.129,0.901
80017,0.323,0.131,0.882
80038,0.458,0.013,0.943
80062,0.265,0.196,0.853
80083,0.463,-0.146,1.084
80107,0.31,0.316,0.785
80128,0.397,0.126,0.78
80148,0.381,0.016,1.041
80173,0.296,0.132,0.968
80193,0.475,0.344,1.235
80218,0.491,-0.026,0.902
80238,0.3,0.152,0.893
80259,0.283,0.067,0.803
80284,0.389,0.036,0.963
80304,0.275,0.109,0.939
80325,0.32,0.091,0.898
80349,0.329,0.051,0.946
80370,0.323,0.065,0.865
80390,0.301,0.07,0.891
80415,0.34,0.031,0.944
80435,0.301,0.097,0.869
80455,0.297,0.083,0.915
80480,0.318,0.064,0.927
80501,0.324,0.052,0.94
80521,0.313,0.087,0.887
80545,0.345,0.086,0.845
80566,0.317,0.08,0.874
80587,0.316,0.061,0.92
80611,0.329,0.052,0.916
80632,0.291,0.101,0.885
80652,0.307,0.086,0.888
80677,0.334,0.054,0.921
80697,0.348,0.035,0.936
80718,0.3,0.108,0.846
80742,0.301,0.069,0.915
80763,0.317,0.042,0.939
80783,0.315,0.063,0.885
80808,0.316,0.07,0.881
80828,0.296,0.073,0.896
80849,0.3,0.054,0.916
80873,0.335,0.02,0.941
80894,0.299,0.023,0.999
80914,0.323,0.056,0.941
80939,0.312,0.072,0.92
80959,0.333,0.061,0.924
80980,0.304,0.089,0.922
81004,0.292,0.086,0.966
81025,0.333,0.077,0.9
81045,0.324,0.077,0.908
81070,0.314,0.08,0.896
81091,0.333,0.051,0.925
81111,0.306,0.081,0.921
81136,0.322,0.091,0.846
81156,0.337,0.095,0.875
81176,0.326,0.102,0.878
81201,0.345,0.104,0.863
81221,0.306,0.115,0.907
81242,0.322,0.105,0.901
81266,0.338,0.089,0.922
81287,0.32,0.112,0.918
81307,0.333,0.103,0.891
81332,0.338,0.088,0.942
81352,0.313,0.121,0.907
81373,0.316,0.107,0.9
81397,0.349,0.078,0.93
81418,0.288,0.141,0.862
81438,0.324,0.092,0.915
81463,0.328,0.075,0.909
81483,0.308,0.083,0.927
81504,0.339,0.036,0.975
81528,0.295,0.101,0.889
81549,0.313,0.101,0.872
81569,0.31,0.06,0.954
81594,0.309,0.07,0.915
81615,0.333,0.042,0.921
81636,0.325,0.058,0.94
81660,0.294,0.133,0.823
81680,0.337,0.078,0.887
81701,0.331,0.038,0.962
81725,0.298,0.096,0.892
81745,0.303,0.078,0.908
81766,0.347,0.051,0.888
81791,0.302,0.05,0.973
81811,0.302,0.091,0.891
81832,0.327,0.064,0.908
81856,0.313,0.052,0.92
81877,0.31,0.074,0.883
81897,0.257,0.126,0.885
81922,0.349,0.01,1.005
81942,0.286,0.094,0.881
81963,0.322,0.039,0.99
81987,0.294,0.094,0.897
82009,0.3,0.074,0.934
82028,0.31,0.087,0.818
82053,0.287,0.043,0.922
82074,0.307,0.008,0.979
82094,0.342,0.083,0.75
82119,0.258,0.144,0.805
82139,0.299,0.055,0.92
82163,0.416,-0.046,0.938
82184,0.256,0.123,0.856
82204,0.309,0.06,0.944
82229,0.359,0.025,0.927
82250,0.309,0.103,0.856
82270,0.329,0.11,0.83
82294,0.33,0.115,0.829
82315,0.36,0.092,0.903
82336,0.322,0.139,0.826
82360,0.294,0.122,0.886
82381,0.33,0.089,0.921
82401,0.324,0.097,0.888
82426,0.295,0.118,0.896
82446,0.297,0.018,1.04
82467,0.396,0.021,0.851
82491,0.311,0.016,0.906
82511,0.233,0.114,0.941
82536,0.336,-0.001,0.882
82557,0.27,-0.021,0.919
82581,0.323,0.063,0.933
82602,0.24,-0.027,0.862
82623,0.207,0.066,1.014
82647,0.235,0.045,1.066
82668,0.21,-0.143,0.906
82692,0.131,-0.119,0.998
82716,0.204,-0.083,0.976
82737,0.173,-0.144,0.921
82761,0.257,-0.111,0.853
82782,0.219,-0.012,1.031
82806,0.257,-0.065,0.92
82831,0.185,-0.145,0.931
82852,0.216,-0.035,0.985
82872,0.224,0.039,0.901
82897,0.225,-0.029,0.968
82921,0.241,-0.008,1.027
82942,0.281,0.001,0.896
82966,0.25,-0.009,0.949
82987,0.275,0.054,0.933
83008,0.299,0.063,0.92
83032,0.22,0.029,0.999
83052,0.244,0.03,0.962
83073,0.26,0.01,0.945
83097,0.305,0.027,0.897
83119,0.644,0.192,1.343
83142,0.279,-0.022,0.934
83163,0.243,0.054,0.953
83183,0.281,0.043,0.921
83208,0.261,0.019,0.937
83228,0.29,0.02,0.906
83249,0.275,0.052,0.906
83273,0.304,0.071,0.927
83294,0.281,-0.005,0.873
83319,0.31,-0.008,0.836
83339,0.233,0.006,0.936
83359,0.263,0.046,0.966
83384,0.247,0.024,0.947
83405,0.265,0.004,0.924
83425,0.268,0.035,0.899
83450,0.283,0.061,0.88
83470,0.321,-0.009,0.932
83494,0.238,0.081,0.932
83515,0.281,0.12,0.866
83536,0.319,0.125,0.832
83560,0.268,0.15,0.822
83580,0.366,0.199,0.945
83605,0.384,-0.034,1.012
83625,0.105,0.201,1.114
83646,0.21,-0.082,0.734
83671,0.437,0.197,0.865
83691,0.264,0.229,0.812
83716,0.401,0.063,0.935
83736,0.33,0.117,0.89
83756,0.341,0.129,0.888
83781,0.335,0.15,0.866
83802,0.338,0.14,0.894
83822,0.347,0.118,0.915
83847,0.354,0.118,0.909
83867,0.359,0.123,0.893
83888,0.327,0.156,0.884
83912,0.348,0.139,0.901
83933,0.357,0.115,0.914
83953,0.333,0.14,0.902
83978,0.361,0.122,0.893
83998,0.337,0.154,0.875
84019,0.366,0.125,0.884
84043,0.332,0.146,0.875
84064,0.357,0.138,0.88
84085,0.381,0.127,0.886
84109,0.327,0.162,0.882
84129,0.364,0.127,0.931
84150,0.308,0.165,0.902
84174,0.405,0.098,0.894
84195,0.326,0.164,0.876
84216,0.37,0.127,0.887
84240,0.339,0.159,0.899
84260,0.362,0.135,0.904
84282,0.357,0.141,0.893
84306,0.343,0.152,0.884
84326,0.359,0.137,0.897
84346,0.345,0.144,0.908
84371,0.37,0.124,0.9
84392,0.357,0.144,0.883
84412,0.336,0.154,0.887
84436,0.346,0.144,0.908
84457,0.402,0.106,0.912
84477,0.325,0.176,0.88
84502,0.367,0.143,0.887
84523,0.351,0.148,0.886
84543,0.361,0.139,0.899
84568,0.355,0.145,0.909
84588,0.293,0.174,0.891
84608,0.681,0.2,0.869
84633,0.309,0.17,0.854
84654,0.228,0.085,0.944
84678,0.249,-0.04,0.873
84699,0.476,0.206,0.946
84719,0.268,0.05,0.907
84744,0.396,0.115,0.9
84764,0.338,0.177,0.85
84785,0.399,0.13,0.82
84809,0.395,0.093,0.899
84830,0.386,0.098,0.917
84850,0.369,0.12,0.896
84875,0.348,0.151,0.857
84895,0.401,0.124,0.979
84916,0.302,0.126,0.933
84940,0.505,0.035,0.941
84961,0.277,0.1,0.764
84982,0.308,-0.026,1.079
85006,0.28,0.007,0.919
85026,0.19,0.063,0.944
85047,0.334,0.046,0.89
85071,0.211,0.171,0.8
85092,0.362,0.027,0.846
85112,0.291,0.035,0.951
85137,0.363,0.083,0.944
85158,0.258,0.075,0.927
85178,0.235,0.037,0.873
85203,0.313,-0.095,1.252
85223,0.297,0.147,0.807
85248,0.305,0.185,0.835
85268,0.344,0.18,0.824
85289,0.36,0.151,0.879
85313,0.367,0.08,0.935
85334,0.356,0.086,0.936
85354,0.344,0.151,0.856
85378,0.333,0.175,0.853
85399,0.342,0.141,0.887
85420,0.356,0.1,0.919
85444,0.354,0.111,0.91
85464,0.349,0.126,0.907
85485,0.304,0.167,0.927
85510,0.234,0.14,0.926
85530,0.319,0.063,0.976
85551,0.381,0.054,0.914
85575,0.355,0.128,0.761
85596,0.784,0.723,1.439
85620,0.201,-0.091,1.073
85641,0.603,-0.161,1.05
85665,0.013,0.099,0.66
85686,0.178,-0.274,0.492
85710,0.316,0.095,0.898
85731,0.452,-0.055,1.043
85752,0.278,0.171,0.877
85776,0.292,0.06,0.811
85796,0.339,0.134,0.798
85817,0.353,0.091,0.956
85841,0.375,0.08,0.961
85862,0.352,0.127,0.909
85883,0.337,0.146,0.851
85907,0.366,0.139,0.874
85927,0.365,0.111,0.909
85949,0.367,0.107,0.913
85972,0.355,0.123,0.891
85993,0.348,0.147,0.877
86013,0.353,0.122,0.885
86038,0.359,0.124,0.909
86059,0.36,0.121,0.9
86079,0.351,0.159,0.857
86104,0.336,0.151,0.879
86124,0.353,0.136,0.884
86149,0.354,-0.002,0.834
86169,0.324,0.125,1.006
86189,0.409,0.083,0.899
86214,0.324,0.114,0.944
86235,0.386,0.074,0.972
86255,0.321,0.174,0.872
86279,0.324,0.166,0.871
86301,0.36,0.126,0.892
86321,0.356,0.122,0.934
86345,0.375,0.122,0.903
86366,0.342,0.162,0.856
86386,0.345,0.139,0.908
86411,0.372,0.119,0.9
86431,0.343,0.138,0.891
86452,0.362,0.125,0.91
86476,0.348,0.149,0.888
86497,0.354,0.143,0.873
86517,0.357,0.133,0.894
86542,0.37,0.125,0.899
86562,0.36,0.138,0.913
86583,0.354,0.149,0.886
86608,0.355,0.137,0.883
86628,0.359,0.13,0.875
86648,0.351,0.142,0.901
86673,0.361,0.133,0.885
86693,0.354,0.146,0.914
86714,0.354,0.133,0.917
86739,0.368,0.127,0.887
86759,0.346,0.142,0.874
86779,0.362,0.132,0.891
86804,0.355,0.127,0.891
86825,0.354,0.135,0.894
86845,0.363,0.13,0.899
86869,0.352,0.132,0.894
86891,0.37,0.124,0.9
86910,0.36,0.136,0.891
86935,0.358,0.137,0.888
86956,0.357,0.138,0.889
86976,0.355,0.144,0.895
87001,0.363,0.128,0.893
87021,0.358,0.133,0.899
87045,0.364,0.133,0.883
87066,0.36,0.136,0.886
87087,0.351,0.144,0.895
87111,0.369,0.14,0.876
87132,0.361,0.141,0.902
87152,0.371,0.128,0.892
87177,0.358,0.141,0.892
87197,0.365,0.129,0.881
87218,0.313,0.079,0.913
87242,0.422,0.1,0.862
87263,0.332,0.175,0.863
87283,0.381,0.122,0.882
87308,0.345,0.16,0.885
87328,0.387,0.115,0.915
87349,0.357,0.127,0.898
87373,0.349,0.149,0.88
87394,0.371,0.137,0.881
87414,0.374,0.132,0.896
87439,0.362,0.133,0.882
87459,0.363,0.136,0.885
87480,0.359,0.145,0.879
87504,0.359,0.139,0.884
87525,0.365,0.131,0.898
87545,0.374,0.141,0.887
87570,0.36,0.145,0.884
87591,0.371,0.136,0.886
87611,0.367,0.126,0.896
87636,0.367,0.129,0.886
87656,0.363,0.143,0.888
87676,0.37,0.139,0.899
87701,0.36,0.144,0.891
87722,0.373,0.131,0.892
87742,0.358,0.147,0.884
87767,0.371,0.14,0.886
87787,0.365,0.136,0.892
87808,0.364,0.147,0.892
87832,0.362,0.134,0.887
87853,0.364,0.136,0.883
87874,0.362,0.146,0.886
87897,0.368,0.138,0.889
87918,0.382,0.133,0.846
87939,0.35,0.144,0.875
87963,0.216,0.113,1.001
87983,0.31,0.152,0.872
88004,0.323,0.099,0.912
88028,0.352,0.068,0.936
88049,0.374,0.07,0.922
88069,0.314,0.141,0.838
88094,0.312,0.125,0.874
88115,0.364,0.047,0.932
88135,0.311,0.075,0.895
88159,0.317,0.031,0.924
88180,0.297,0.042,0.924
88201,0.291,0.052,0.905
88225,0.231,0.052,0.991
88245,0.381,-0.006,0.851
88270,0.345,0.066,1.005
88292,0.17,-0.039,0.99
88311,0.345,0.094,0.894
88336,0.34,0.038,0.864
88357,0.285,0.019,0.975
88377,0.278,0.023,0.977
88402,0.304,-0.015,0.911
88422,0.287,0.021,0.945
88446,0.55,-0.095,0.894
88471,0.572,-0.061,0.97
88491,0.167,-0.149,0.806
88512,0.319,0.028,0.927
88536,0.346,0.03,0.881
88557,0.329,0.034,0.918
88582,0.629,-0.086,0.76
88602,0.023,0.136,1.357
88627,0.682,-0.037,0.563
88647,0.459,-0.109,0.585
88672,0.225,-0.216,0.729
88692,0.37,0.094,0.854
88717,0.578,0.621,1.04
88737,0.432,0.026,0.782
88757,0.336,0.08,0.931
88782,0.398,0.021,0.925
88803,0.396,0.039,0.886
88823,0.395,0.045,0.885
88848,0.38,0.08,0.818
88868,0.453,0.004,0.907
88889,0.386,0.061,0.863
88913,0.374,0.041,0.945
88934,0.403,0.04,0.911
88954,0.414,0.053,0.877
88979,0.369,0.083,0.886
88999,0.433,0.052,0.858
89020,0.369,0.123,0.839
89044,0.683,-0.155,0.934
89065,0.157,0.31,0.767
89089,0.601,-0.059,0.896
89110,0.263,0.163,0.891
89135,0.526,-0.024,0.887
89155,0.356,0.109,0.875
89176,0.376,0.105,0.843
89200,0.447,0.014,0.91
89220,0.408,0.058,0.875
89241,0.374,0.1,0.858
89266,0.644,-0.166,0.649
89286,0.274,0.03,0.658
89310,0.372,0.06,0.912
89331,0.406,0.078,0.844
89352,0.387,0.069,0.875
89376,0.369,0.063,0.91
89396,0.428,0.042,0.849
89417,0.404,0.036,0.894
89442,0.454,0.044,0.811
89462,0.412,0.051,0.859
89483,0.421,0.043,0.852
89508,0.38,0.065,0.857
89527,0.408,0.063,0.821
89548,0.404,0.03,0.898
89573,0.584,-0.094,0.837
89593,0.338,0.116,0.827
89618,0.416,0.038,0.863
89638,0.388,0.057,0.864
89659,0.434,0.031,0.858
89684,0.379,0.071,0.885
89704,0.386,0.027,0.937
89724,0.766,-0.102,0.84
89749,0.243,0.176,1.163
89770,0.401,0.01,0.829
89790,0.427,0.036,0.873
89815,0.393,0.052,0.885
89835,0.428,0.064,0.844
89856,0.435,0.034,0.878
89880,0.528,0.051,0.884
89901,0.434,0.04,0.842
89921,0.42,0.041,0.886
89945,0.425,0.043,0.864
89966,0.435,0.043,0.867
89991,0.426,0.037,0.874
90011,0.428,0.042,0.866
90031,0.441,0.038,0.879
90056,0.427,0.045,0.877
90076,0.419,0.047,0.894
90097,0.445,0.03,0.872
90122,0.438,0.038,0.874
90142,0.442,0.062,0.805
90162,0.437,0.041,0.874
90187,0.444,0.047,0.853
90207,0.442,0.04,0.863
90228,0.437,0.04,0.871
90252,0.44,0.037,0.868
90273,0.447,0.037,0.875
90293,0.424,0.057,0.87
90318,0.457,0.021,0.884
90340,0.447,0.043,0.876
90359,0.438,0.035,0.859
90384,0.44,0.043,0.863
90404,0.456,0.03,0.869
90424,0.453,0.038,0.87
90449,0.445,0.042,0.872
90470,0.448,0.041,0.865
90490,0.447,0.04,0.866
90515,0.444,0.041,0.865
90535,0.448,0.044,0.866
90557,0.44,0.043,0.875
90580,0.461,0.038,0.846
90601,0.441,0.037,0.886
90621,0.445,0.042,0.859
90645,0.457,0.042,0.853
90666,0.439,0.046,0.877
90687,0.449,0.047,0.859
90711,0.443,0.038,0.871
90732,0.445,0.04,0.859
90752,0.43,0.035,0.889
90777,0.438,0.045,0.86
90798,0.413,0.019,0.912
90818,0.787,-0.065,1.306
90842,0.456,0.041,0.845
90863,0.429,0.057,0.879
90888,0.435,0.061,0.873
90908,0.361,-0.001,0.721
90928,0.67,0.106,0.966
90953,0.429,0.038,0.89
90974,0.24,0.028,1.017
90998,0.069,-0.017,0.593
91019,0.594,-0.151,0.987
91043,0.4,0.057,0.895
91063,0.187,0.112,0.765
91084,1.197,1.014,0.834
91109,0.096,-0.074,0.354
91129,0.377,0.039,0.907
91153,0.39,0.041,0.896
91174,0.375,0.073,0.906
91194,0.225,0.049,0.839
91219,0.196,-0.163,0.816
91240,0.234,0.121,0.878
91260,0.406,0.029,0.908
91285,0.392,0.029,0.888
91305,0.385,0.041,0.887
91326,0.381,0.046,0.895
91351,0.371,0.043,0.903
91371,0.384,0.052,0.875
91391,0.427,0.087,0.875
91416,0.146,-0.021,0.921
91436,0.772,0.192,1.285
91461,0.306,0.026,0.812
91481,0.466,-0.019,0.875
91506,0.301,0.061,0.909
91527,0.407,0.19,0.957
91547,0.384,0.048,0.906
91571,0.812,0.603,0.869
91592,0.382,0.081,0.895
91612,0.383,0.091,0.886
91637,0.401,0.065,0.892
91657,0.391,0.065,0.914
91678,0.384,0.086,0.877
91702,0.385,0.085,0.877
91723,0.386,0.084,0.876
91743,0.394,0.074,0.892
91768,0.385,0.085,0.876
91789,0.392,0.076,0.886
91809,0.386,0.086,0.883
91833,0.389,0.077,0.89
91854,0.383,0.088,0.886
91875,0.383,0.081,0.892
91899,0.388,0.085,0.875
91920,0.39,0.079,0.882
91940,0.363,0.091,0.921
91965,0.402,0.069,0.892
91986,0.384,0.083,0.936
92006,0.395,0.075,0.93
92030,0.365,0.104,0.89
92051,0.394,0.072,0.918
92071,0.383,0.087,0.896
92095,0.391,0.079,0.901
92116,0.364,0.077,0.89
92137,0.39,0.085,0.88
92161,0.391,0.083,0.891
92182,0.379,0.09,0.879
92202,0.38,0.09,0.883
92227,0.39,0.087,0.884
92247,0.385,0.09,0.889
92268,0.387,0.076,0.89
92292,0.384,0.086,0.871
92313,0.381,0.092,0.877
92333,0.395,0.086,0.885
92358,0.385,0.083,0.88
92378,0.38,0.09,0.886
92399,0.391,0.081,0.89
92423,0.383,0.086,0.891
92444,0.401,0.082,0.881
92464,0.383,0.091,0.892
92489,0.388,0.083,0.885
92509,0.389,0.073,0.909
92530,0.384,0.098,0.878
92555,0.386,0.085,0.89
92575,0.467,0.06,0.807
92595,0.35,0.119,0.856
92620,0.435,0.064,0.878
92640,0.256,0.158,0.899
92661,0.465,0.0,0.923
92686,0.302,0.19,0.822
92706,0.439,0.07,0.876
92727,0.369,0.115,0.86
92751,0.409,0.025,0.972
92772,0.37,0.063,0.931
92792,0.461,0.029,0.868
92817,0.318,0.134,0.849
92837,0.441,0.033,0.913
92858,0.359,0.109,0.875
92882,0.378,0.1,0.882
92903,0.388,0.095,0.882
92923,0.38,0.087,0.916
92947,0.383,0.085,0.898
92968,0.415,0.076,0.881
92989,0.394,0.098,0.88
93013,0.396,0.102,0.881
93034,0.395,0.096,0.875
93054,0.4,0.079,0.894
93078,0.381,0.094,0.881
93099,0.382,0.093,0.884
93120,0.386,0.102,0.873
93144,0.404,0.077,0.887
93165,0.394,0.09,0.886
93186,0.389,0.092,0.891
93210,0.393,0.094,0.892
93230,0.382,0.103,0.859
93255,0.394,0.08,0.891
93275,0.383,0.096,0.874
93296,0.382,0.094,0.886
93320,0.389,0.092,0.89
93341,0.396,0.083,0.894
93361,0.382,0.093,0.877
93386,0.386,0.092,0.875
93407,0.388,0.092,0.872
93427,0.392,0.088,0.898
93451,0.404,0.089,0.885
93472,0.393,0.085,0.894
93492,0.384,0.089,0.882
93517,0.393,0.093,0.88
93538,0.385,0.101,0.882
93558,0.379,0.097,0.884
93583,0.393,0.088,0.882
93603,0.387,0.086,0.892
93624,0.386,0.094,0.881
93648,0.388,0.089,0.884
93668,0.392,0.084,0.899
93689,0.389,0.088,0.885
93713,0.377,0.096,0.889
93734,0.389,0.092,0.883
93755,0.398,0.078,0.898
93779,0.38,0.088,0.882
93800,0.391,0.095,0.88
93821,0.405,0.081,0.885
93844,0.377,0.095,0.888
93865,0.47,0.039,0.887
93886,0.331,0.446,0.437
93910,0.443,0.102,0.912
93930,0.383,0.131,0.866
93951,0.352,0.1,0.875
93975,0.418,0.115,0.841
93996,0.392,-0.002,0.89
94017,0.33,0.112,0.855
94041,0.412,0.061,0.983
94061,0.371,0.088,0.896
94082,0.38,0.076,0.886
94107,0.364,0.092,0.876
94127,0.433,0.35,0.939
94152,0.421,0.075,0.878
94172,0.373,0.132,0.883
94193,0.384,0.073,0.858
94217,0.389,0.109,0.876
94238,0.363,0.093,0.911
94258,0.405,0.085,0.883
94283,0.364,0.117,0.899
94304,0.419,0.076,0.904
94324,0.352,0.085,0.901
94348,0.405,0.071,0.9
94369,0.379,0.096,0.876
94390,0.394,0.119,0.906
94415,0.363,0.067,0.874
94435,0.338,0.168,1.071
94455,0.4,0.027,1.027
94479,0.402,0.09,0.916
94500,0.387,0.111,0.877
94520,0.384,0.106,0.867
94545,0.379,0.104,0.886
94566,0.384,0.102,0.889
94586,0.392,0.097,0.877
94610,0.361,0.111,0.874
94631,0.399,0.089,0.889
94651,0.39,0.101,0.881
94676,0.382,0.105,0.884
94696,0.384,0.101,0.882
94717,0.387,0.099,0.878
94741,0.379,0.099,0.887
94762,0.384,0.094,0.873
94783,0.379,0.103,0.89
94807,0.381,0.095,0.88
94827,0.384,0.101,0.879
94848,0.384,0.098,0.895
94872,0.384,0.098,0.883
94893,0.388,0.095,0.885
94914,0.382,0.095,0.886
94938,0.385,0.096,0.883
94959,0.387,0.105,0.885
94979,0.384,0.095,0.874
95004,0.386,0.101,0.91
95024,0.399,0.094,0.916
95044,0.379,0.1,0.883
95069,0.385,0.28,1.056
95090,0.408,0.104,0.936
95110,0.381,0.09,0.893
95135,0.394,0.092,0.882
95155,0.377,0.101,0.876
95176,0.384,0.104,0.899
95200,0.385,0.092,0.871
95221,0.38,0.097,0.881
95241,0.379,0.054,0.826
95266,0.397,0.131,0.958
95287,0.369,0.099,0.918
95307,0.453,0.053,0.913
95331,0.363,0.099,0.852
95352,0.408,0.077,0.854
95373,0.379,0.101,0.89
95397,0.391,0.095,0.876
95418,0.395,0.103,0.883
95438,0.379,0.097,0.858
95462,0.385,0.095,0.881
95483,0.39,0.097,0.883
95503,0.388,0.101,0.885
95528,0.386,0.09,0.885
95549,0.386,0.093,0.892
95569,0.379,0.081,0.869
95593,0.389,0.102,0.885
95614,0.384,0.094,0.894
95635,0.373,0.11,0.887
95659,0.398,0.083,0.882
95679,0.38,0.096,0.877
95700,0.388,0.096,0.885
95724,0.386,0.095,0.888
95745,0.387,0.095,0.873
95766,0.385,0.076,0.875
95790,0.382,0.104,0.88
95810,0.382,0.094,0.915
95831,0.398,0.098,0.889
95855,0.385,0.106,0.891
95876,0.391,0.12,0.86
95896,0.381,0.098,0.878
95921,0.381,0.097,0.872
95942,0.38,0.103,0.88
95962,0.393,0.092,0.882
95987,0.389,0.094,0.871
96008,0.382,0.106,0.891
96028,0.385,0.096,0.886
96052,0.386,0.098,0.889
96073,0.396,0.089,0.884
96093,0.372,0.105,0.888
96118,0.383,0.089,0.901
96138,0.382,0.099,0.881
96159,0.397,0.122,0.91
96183,0.409,0.084,0.897
96204,0.37,0.104,0.874
96224,0.394,0.081,0.878
96249,0.377,0.113,0.885
96269,0.376,0.101,0.881
96290,0.387,0.095,0.889
96314,0.389,0.09,0.884
96335,0.386,0.083,0.898
96355,0.385,0.097,0.91
96380,0.385,0.088,0.884
96401,0.393,0.127,0.913
96421,0.385,0.112,0.865
96445,0.371,0.095,0.859
96466,0.378,0.106,0.872
96487,0.402,0.092,0.888
96511,0.379,0.107,0.89
96532,0.39,0.089,0.871
96552,0.376,0.098,0.87
96576,0.418,0.065,0.898
96597,0.395,0.085,0.868
96618,0.37,0.106,0.882
96642,0.373,0.116,0.869
96662,0.408,0.086,0.892
96683,0.369,0.12,0.862
96707,0.412,0.074,0.898
96728,0.361,0.109,0.905
96749,0.386,0.068,0.918
96773,0.332,0.165,0.816
96793,0.414,0.073,0.889
96814,0.373,0.128,0.865
96838,0.408,0.098,0.887
96859,0.365,0.126,0.87
96879,0.448,0.063,0.877
96904,0.375,0.133,0.857
96925,0.412,0.108,0.853
96945,0.44,0.068,0.906
96970,0.33,0.098,1.008
96994,-0.055,-0.04,1.02
97015,0.4,-0.067,0.307
97039,0.455,0.124,0.837
97060,0.337,0.166,0.82
97080,0.405,0.096,0.877
97105,0.369,0.12,0.882
97125,0.363,0.123,0.89
97146,0.387,0.106,0.877
97170,0.36,0.114,0.902
97191,0.384,0.104,0.882
97211,0.383,0.118,0.898
97236,0.373,0.122,0.891
97256,0.384,0.101,0.885
97277,0.385,0.114,0.89
97302,0.38,0.112,0.88
97322,0.388,0.115,0.884
97342,0.384,0.112,0.889
97367,0.38,0.115,0.882
97388,0.386,0.114,0.888
97408,0.373,0.127,0.868
97433,0.378,0.106,0.895
97453,0.381,0.094,0.851
97473,0.407,0.101,0.872
97499,0.365,0.122,0.873
97519,0.376,0.124,0.884
97539,0.371,0.126,0.868
97564,0.386,0.113,0.876
97584,0.385,0.114,0.891
97605,0.376,0.11,0.89
97629,0.386,0.107,0.884
97650,0.385,0.114,0.886
97670,0.373,0.125,0.88
97694,0.375,0.114,0.886
97715,0.372,0.12,0.895
97736,0.37,0.103,0.889
97760,0.38,0.102,0.907
97781,0.37,0.121,0.891
97801,0.386,0.106,0.877
97826,0.382,0.108,0.888
97846,0.385,0.117,0.883
97867,0.379,0.12,0.872
97891,0.376,0.119,0.878
97911,0.38,0.113,0.885
97933,0.378,0.117,0.885
97957,0.387,0.112,0.876
97977,0.379,0.111,0.901
97998,0.391,0.109,0.896
98022,0.375,0.122,0.888
98043,0.359,0.134,0.868
98063,0.392,0.11,0.907
98088,0.349,0.132,0.987
98108,0.169,-0.159,0.854
98133,0.5,0.2,0.986
98154,0.598,0.602,0.979
98174,0.365,0.153,0.837
98199,0.385,0.112,0.897
98219,0.409,0.084,0.911
98240,0.381,0.115,0.895
98264,0.381,0.118,0.881
98284,0.371,0.129,0.87
98305,0.387,0.097,0.899
98329,0.396,0.099,0.875
98350,0.376,0.132,0.833
98371,0.389,0.1,0.879
98395,0.397,0.104,0.87
98416,0.401,0.088,0.88
98436,0.39,0.102,0.893
98460,0.384,0.114,0.878
98481,0.39,0.098,0.88
98502,0.391,0.103,0.886
98526,0.386,0.1,0.885
98546,0.376,0.092,0.888
98567,0.373,0.106,0.874
98591,0.399,0.1,0.879
98612,0.396,0.099,0.884
98633,0.392,0.098,0.888
98657,0.389,0.102,0.89
98677,0.39,0.096,0.9
98698,0.396,0.095,0.89
98722,0.389,0.1,0.886
98743,0.39,0.111,0.884
98764,0.385,0.104,0.887
98788,0.403,0.111,0.908
98809,0.396,0.098,0.888
98829,0.381,0.11,0.88
98854,0.39,0.098,0.878
98874,0.398,0.095,0.88
98895,0.383,0.092,0.87
98920,0.391,0.096,0.882
98940,0.402,0.102,0.87
98960,0.391,0.102,0.892
98985,0.388,0.116,0.871
99006,0.387,0.099,0.872
99026,0.39,0.104,0.878
99050,0.387,0.101,0.886
99071,0.396,0.097,0.879
99091,0.387,0.112,0.894
99116,0.401,0.094,0.896
99136,0.39,0.088,0.851
99157,0.386,0.104,0.888
99182,0.402,0.095,0.876
99202,0.381,0.108,0.88
99222,0.387,0.104,0.88
99247,0.375,0.107,0.891
99268,0.397,0.103,0.898
99288,0.38,0.101,0.887
99312,0.374,0.107,0.892
99333,0.398,0.101,0.883
99354,0.386,0.114,0.893
99378,0.411,0.143,0.938
99399,0.396,0.088,0.889
99419,0.377,0.109,0.875
99443,0.417,0.093,0.875
99464,0.365,0.121,0.888
99485,0.405,0.091,0.888
99509,0.392,0.098,0.893
99529,0.395,0.098,0.888
99550,0.379,0.113,0.897
99575,0.411,0.111,0.951
99595,0.379,0.126,0.887
99616,0.39,0.106,0.885
99640,0.391,0.101,0.876
99660,0.383,0.093,0.892
99681,0.391,0.097,0.884
99706,0.38,0.102,0.893
99726,0.386,-0.006,0.826
99751,0.37,0.119,0.879
99771,0.378,0.037,0.894
99792,0.347,0.119,0.877
99816,0.418,0.086,0.887
99837,0.4,0.085,0.897
99857,0.386,0.11,0.88
99882,0.377,0.109,0.893
99903,0.399,0.095,0.888
99923,0.355,0.12,0.885
99948,0.402,0.062,0.895
99968,0.374,0.098,0.906
99989,0.402,0.104,0.844
100013,0.346,0.129,0.865
100034,0.394,0.079,0.9
100054,0.426,0.075,0.907
100078,0.384,0.116,0.853
100099,0.359,0.13,0.859
100120,0.387,0.107,0.883
100144,0.384,0.094,0.87
100165,0.364,0.216,0.841
100185,0.398,0.084,0.902
100209,0.384,0.111,0.904
100230,0.373,0.096,0.866
100251,0.404,0.107,0.85
100275,0.38,0.112,0.868
100295,0.391,0.115,0.878
100316,0.411,0.087,0.895
100341,0.379,0.099,0.876
100361,0.365,0.024,0.807
100382,0.446,0.137,0.953
100406,0.377,0.115,0.977
100426,0.364,0.07,0.874
100447,0.37,0.093,0.923
100471,0.403,0.086,0.923
100492,0.394,0.103,0.881
100512,0.391,0.111,0.858
100537,0.371,0.124,0.868
100558,0.394,0.099,0.904
100578,0.386,0.105,0.872
100602,0.386,0.104,0.883
100623,0.348,0.119,0.916
100643,0.398,0.051,0.906
100668,0.393,0.069,0.934
100689,0.347,0.147,0.837
100709,0.389,0.084,0.901
100734,0.384,0.118,0.885
100754,0.387,0.109,0.867
100775,0.376,0.135,0.861
100799,0.395,0.092,0.883
100820,0.38,0.101,0.875
100841,0.377,0.12,0.879
100865,0.386,0.11,0.896
100886,0.386,0.105,0.898
100906,0.377,0.107,0.879
100931,0.395,0.088,0.878
100951,0.39,0.093,0.893
100971,0.386,0.097,0.89
100996,0.392,0.098,0.891
101016,0.392,0.115,0.902
101037,0.382,0.11,0.88
101061,0.388,0.095,0.88
101082,0.381,0.104,0.886
101103,0.391,0.098,0.88
101127,0.385,0.098,0.876
101148,0.389,0.087,0.889
101168,0.385,0.102,0.873
101192,0.387,0.111,0.859
101213,0.386,0.1,0.879
101233,0.393,0.105,0.886
101258,0.376,0.111,0.887
101278,0.395,0.096,0.875
101299,0.384,0.107,0.884
101324,0.392,0.102,0.876
101344,0.382,0.109,0.885
101365,0.384,0.106,0.88
101389,0.386,0.112,0.889
101409,0.392,0.113,0.876
101430,0.391,0.101,0.876
101454,0.397,0.091,0.881
101475,0.376,0.112,0.895
101495,0.402,0.095,0.885
101520,0.394,0.096,0.884
101541,0.38,0.109,0.87
101561,0.383,0.115,0.872
101586,0.38,0.087,0.889
101606,0.394,0.104,0.889
101627,0.393,0.111,0.881
101651,0.395,0.099,0.872
101672,0.39,0.1,0.875
101692,0.385,0.106,0.917
101717,0.421,0.078,0.889
101737,0.378,0.119,0.872
101758,0.388,0.099,0.889
101782,0.404,0.092,0.905
101803,0.395,0.096,0.9
101823,0.387,0.095,0.895
101847,0.384,0.058,0.895
101868,0.396,0.087,0.899
101889,0.383,0.096,0.882
101913,0.372,0.089,0.854
101934,0.938,0.553,1.174
101958,0.324,-0.089,0.837
101979,0.524,0.099,0.954
101999,0.375,0.108,0.893
102024,0.404,0.084,0.897
102044,0.365,0.122,0.863
102065,0.391,0.108,0.873
102089,0.378,0.107,0.883
102110,0.38,0.107,0.896
102130,0.38,0.098,0.887
102155,0.373,0.108,0.903
102176,0.384,0.097,0.88
102196,0.371,0.112,0.876
102221,0.367,0.13,0.823
102241,0.366,0.112,0.899
102266,0.554,-0.057,0.982
102286,0.072,0.03,0.811
102310,0.333,-0.075,0.839
102331,0.339,0.129,0.796
102352,0.434,0.08,0.854
102376,0.322,0.168,0.85
102398,0.405,0.086,0.872
102417,0.367,0.107,0.883
102442,0.385,0.089,0.889
102462,0.36,0.123,0.871
102483,0.371,0.11,0.882
102507,0.381,0.1,0.889
102527,0.379,0.097,0.891
102548,0.378,0.101,0.892
102573,0.369,0.109,0.886
102593,0.364,0.115,0.883
102614,0.376,0.102,0.892
102638,0.378,0.096,0.885
102659,0.374,0.108,0.882
102679,0.384,0.101,0.882
102704,0.378,0.107,0.891
102724,0.378,0.1,0.893
102745,0.372,0.109,0.88
102769,0.379,0.105,0.887
102790,0.371,0.105,0.888
102810,0.374,0.109,0.878
102835,0.371,0.106,0.898
102856,0.368,0.099,0.9
102876,0.358,0.082,0.888
102900,0.377,0.12,0.869
102921,0.371,0.117,0.881
102941,0.374,0.1,0.892
102966,0.376,0.104,0.883
102986,0.375,0.112,0.888
103007,0.382,0.091,0.892
103032,0.345,0.095,0.845
103052,0.379,0.086,0.878
103073,0.374,0.105,0.903
103097,0.371,0.112,0.892
103118,0.365,0.114,0.89
103138,0.376,0.104,0.878
103162,0.365,0.115,0.885
103183,0.381,0.091,0.889
103203,0.362,0.117,0.885
103228,0.376,0.103,0.898
103249,0.367,0.111,0.891
103269,0.368,0.108,0.887
103293,0.366,0.112,0.898
103314,0.367,0.107,0.888
103335,0.362,0.099,0.891
103359,0.37,0.103,0.896
103379,0.362,0.111,0.89
103400,0.369,0.114,0.888
103425,0.376,0.106,0.884
103445,0.367,0.115,0.899
103465,0.376,0.104,0.892
103490,0.368,0.097,0.886
103511,0.373,0.112,0.882
103531,0.369,0.116,0.892
103556,0.362,0.111,0.887
103576,0.368,0.116,0.903
103597,0.371,0.108,0.899
103621,0.372,0.11,0.896
103642,0.381,0.111,0.887
103662,0.364,0.101,0.881
103687,0.364,0.107,0.891
103707,0.373,0.11,0.89
103728,0.363,0.113,0.897
103752,0.37,0.112,0.891
103773,0.366,0.105,0.885
103793,0.369,0.105,0.882
103818,0.37,0.104,0.888
103839,0.368,0.111,0.891
103859,0.369,0.105,0.889
103883,0.37,0.107,0.887
103904,0.371,0.108,0.895
103924,0.37,0.108,0.893
103949,0.365,0.109,0.887
103970,0.373,0.111,0.886
103990,0.374,0.11,0.892
104015,0.373,0.105,0.891
104035,0.372,0.102,0.888
104055,0.369,0.106,0.892
104080,0.375,0.119,0.881
104101,0.368,0.104,0.892
104121,0.371,0.106,0.894
104145,0.379,0.103,0.887
104166,0.371,0.106,0.89
104186,0.368,0.101,0.876
104211,0.367,0.106,0.896
104232,0.383,0.09,0.892
104252,0.368,0.117,0.896
104276,0.382,0.104,0.89
104297,0.371,0.109,0.885
104318,0.369,0.109,0.885
104342,0.376,0.104,0.895
104362,0.376,0.109,0.886
104383,0.375,0.113,0.891
104408,0.374,0.11,0.89
104428,0.372,0.106,0.892
104449,0.377,0.1,0.912
104474,0.372,0.111,0.896
104493,0.364,0.111,0.887
104514,0.374,0.102,0.887
104539,0.367,0.105,0.883
104559,0.369,0.108,0.896
104580,0.369,0.108,0.894
104604,0.374,0.107,0.877
104625,0.368,0.112,0.897
104645,0.364,0.117,0.885
104670,0.364,0.112,0.885
104690,0.377,0.1,0.897
104711,0.372,0.103,0.884
104735,0.368,0.105,0.881
104756,0.372,0.111,0.884
104776,0.365,0.113,0.884
104801,0.375,0.111,0.888
104822,0.363,0.112,0.891
104846,0.376,0.106,0.898
104867,0.368,0.113,0.886
104887,0.374,0.107,0.891
104911,0.366,0.112,0.891
104932,0.366,0.094,0.878
104952,0.366,0.109,0.904
104977,0.364,0.104,0.916
104997,0.365,0.1,0.901
105018,0.377,0.093,0.903
105043,0.364,0.115,0.881
105063,0.375,0.099,0.893
105083,0.364,0.115,0.891
105108,0.371,0.101,0.898
105128,0.364,0.113,0.895
105149,0.369,0.106,0.895
105173,0.372,0.104,0.886
105194,0.367,0.103,0.892
105215,0.363,0.11,0.892
105239,0.37,0.106,0.893
105259,0.367,0.112,0.89
105280,0.363,0.11,0.897
105305,0.365,0.106,0.886
105325,0.375,0.101,0.894
105345,0.37,0.105,0.896
105370,0.37,0.104,0.898
105391,0.36,0.106,0.885
105411,0.37,0.097,0.891
105436,0.365,0.114,0.891
105456,0.37,0.104,0.89
105476,0.362,0.103,0.886
105501,0.37,0.105,0.887
105522,0.368,0.107,0.894
105543,0.366,0.106,0.89
105567,0.359,0.125,0.892
105587,0.37,0.113,0.895
105608,0.363,0.108,0.9
105632,0.365,0.11,0.888
105653,0.369,0.104,0.885
105673,0.368,0.106,0.882
105697,0.369,0.1,0.9
105718,0.367,0.109,0.909
105738,0.376,0.112,0.897
105763,0.368,0.112,0.88
105784,0.369,0.11,0.882
105804,0.367,0.108,0.885
105829,0.368,0.099,0.885
105849,0.373,0.104,0.893
105870,0.368,0.111,0.887
105894,0.371,0.108,0.877
105915,0.374,0.109,0.902
105936,0.369,0.116,0.889
105960,0.376,0.103,0.884
105981,0.373,0.111,0.888
106001,0.382,0.107,0.895
106025,0.363,0.114,0.888
106046,0.375,0.104,0.898
106067,0.356,0.116,0.897
106091,0.375,0.103,0.891
106111,0.367,0.113,0.885
106132,0.373,0.11,0.889
106157,0.372,0.108,0.885
106177,0.374,0.105,0.884
106198,0.374,0.103,0.895
106222,0.38,0.103,0.889
106243,0.366,0.116,0.882
106263,0.373,0.108,0.894
106288,0.367,0.109,0.894
106308,0.375,0.104,0.895
106328,0.374,0.109,0.887
106353,0.372,0.113,0.884
106374,0.366,0.106,0.885
106394,0.37,0.101,0.886
106418,0.368,0.108,0.891
106439,0.367,0.109,0.889
106459,0.372,0.107,0.892
106484,0.368,0.104,0.895
106505,0.372,0.105,0.883
106525,0.37,0.109,0.889
106550,0.377,0.102,0.88
106570,0.373,0.117,0.886
106591,0.373,0.105,0.884
106615,0.374,0.118,0.89
106636,0.371,0.11,0.884
106656,0.371,0.112,0.884
106681,0.372,0.099,0.894
106701,0.376,0.108,0.887
106722,0.372,0.11,0.889
106746,0.373,0.112,0.873
106767,0.37,0.114,0.888
106787,0.374,0.1,0.893
106812,0.382,0.111,0.897
106833,0.373,0.11,0.891
106853,0.371,0.107,0.892
106877,0.372,0.109,0.895
106898,0.373,0.101,0.887
106919,0.368,0.111,0.892
106943,0.364,0.114,0.908
106964,0.383,0.09,0.903
106984,0.368,0.111,0.896
107008,0.373,0.111,0.893
107029,0.371,0.114,0.881
107050,0.374,0.105,0.879
107074,0.368,0.104,0.893
107094,0.377,0.105,0.896
107115,0.374,0.106,0.889
107140,0.372,0.11,0.896
107160,0.373,0.109,0.893
107181,0.371,0.116,0.888
107205,0.375,0.101,0.884
107226,0.367,0.116,0.885
107246,0.382,0.109,0.89
107271,0.367,0.115,0.882
107292,0.378,0.107,0.889
107311,0.368,0.11,0.888
107336,0.374,0.102,0.886
107357,0.372,0.108,0.891
107377,0.37,0.105,0.894
107401,0.376,0.111,0.897
107422,0.385,0.119,0.871
107442,0.404,0.15,0.865
107467,0.24,0.148,0.71
107488,0.419,0.063,0.951
107508,0.347,0.382,0.8
107533,0.376,0.146,0.847
107554,0.362,0.107,0.919
107574,0.407,0.087,0.931
107598,0.382,0.112,0.872
107619,0.355,0.135,0.861
107640,0.36,0.141,0.876
107664,0.374,0.103,0.907
107684,0.371,0.106,0.904
107705,0.375,0.12,0.892
107729,0.37,0.136,0.878
107750,0.379,0.113,0.886
107771,0.375,0.107,0.895
107795,0.374,0.117,0.895
107815,0.376,0.132,0.89
107836,0.365,0.13,0.878
107860,0.375,0.124,0.887
107881,0.371,0.119,0.892
107901,0.378,0.119,0.877
107926,0.373,0.118,0.886
107946,0.379,0.119,0.882
107967,0.37,0.115,0.891
107991,0.375,0.114,0.885
108012,0.367,0.114,0.896
108033,0.372,0.11,0.895
108057,0.372,0.127,0.892
108077,0.381,0.115,0.89
108098,0.375,0.119,0.876
108123,0.377,0.126,0.882
108143,0.372,0.121,0.886
108164,0.38,0.12,0.889
108189,0.381,0.112,0.885
108209,0.382,0.117,0.882
108229,0.367,0.118,0.887
108253,0.379,0.115,0.888
108274,0.374,0.123,0.887
108294,0.38,0.12,0.889
108319,0.375,0.122,0.89
108340,0.369,0.118,0.878
108360,0.362,0.129,0.876
108385,0.389,0.108,0.885
108405,0.375,0.121,0.885
108429,0.373,0.121,0.876
108451,0.377,0.115,0.877
108471,0.373,0.12,0.893
108495,0.377,0.113,0.89
108516,0.373,0.122,0.889
108536,0.364,0.114,0.874
108560,0.375,0.12,0.888
108582,0.379,0.111,0.893
108602,0.38,0.113,0.89
108626,0.372,0.113,0.887
108647,0.371,0.119,0.88
108667,0.38,0.115,0.89
108692,0.379,0.114,0.877
108712,0.379,0.115,0.896
108734,0.369,0.112,0.881
108757,0.374,0.114,0.889
108778,0.373,0.115,0.889
108799,0.377,0.123,0.896
108823,0.374,0.123,0.895
108843,0.368,0.118,0.885
108864,0.375,0.111,0.888
108889,0.371,0.11,0.889
108909,0.381,0.113,0.889
108929,0.372,0.115,0.88
108954,0.371,0.116,0.883
108975,0.369,0.125,0.891
108995,0.375,0.121,0.886
109020,0.38,0.115,0.886
109041,0.376,0.118,0.889
109060,0.376,0.111,0.893
109085,0.373,0.12,0.88
109106,0.374,0.112,0.888
109126,0.377,0.112,0.896
109151,0.371,0.115,0.879
109171,0.377,0.116,0.885
109192,0.37,0.119,0.88
109216,0.374,0.114,0.887
109237,0.375,0.114,0.889
109257,0.38,0.108,0.889
109282,0.37,0.11,0.878
109302,0.38,0.118,0.88
109323,0.378,0.116,0.886
109347,0.374,0.12,0.881
109368,0.373,0.122,0.88
109388,0.371,0.124,0.887
109412,0.375,0.118,0.881
109433,0.374,0.115,0.893
109454,0.377,0.116,0.889
109478,0.376,0.112,0.881
109499,0.372,0.11,0.879
109519,0.37,0.12,0.89
109543,0.372,0.118,0.876
109564,0.375,0.118,0.884
109585,0.371,0.115,0.892
109609,0.375,0.114,0.89
109630,0.375,0.115,0.887
109650,0.38,0.116,0.892
109675,0.369,0.119,0.888
109695,0.376,0.118,0.886
109716,0.374,0.121,0.883
109740,0.374,0.118,0.876
109761,0.379,0.114,0.887
109781,0.379,0.119,0.885
109806,0.374,0.115,0.883
109826,0.372,0.119,0.894
109847,0.372,0.12,0.886
109872,0.374,0.111,0.896
109892,0.372,0.118,0.884
109912,0.376,0.117,0.9
109937,0.376,0.122,0.901
109958,0.379,0.114,0.888
109978,0.377,0.117,0.882
110003,0.375,0.117,0.876
110023,0.375,0.115,0.877
110043,0.377,0.12,0.881
110068,0.381,0.11,0.879
110088,0.375,0.115,0.889
110109,0.378,0.105,0.893
110133,0.371,0.121,0.891
110154,0.374,0.117,0.889
110174,0.372,0.114,0.89
110199,0.377,0.114,0.889
110220,0.38,0.119,0.882
110240,0.384,0.115,0.888
110265,0.383,0.117,0.884
110285,0.373,0.118,0.881
110306,0.376,0.117,0.882
110331,0.378,0.115,0.892
110351,0.374,0.125,0.89
110371,0.378,0.115,0.883
110395,0.383,0.113,0.887
110416,0.377,0.113,0.895
110437,0.376,0.111,0.874
110461,0.373,0.116,0.874
110482,0.394,0.115,0.86
110503,0.367,0.136,0.867
110526,0.392,0.101,0.892
110547,0.375,0.121,0.876
110568,0.377,0.115,0.886
110592,0.375,0.113,0.897
110613,0.377,0.11,0.894
110634,0.382,0.114,0.894
110658,0.373,0.121,0.881
110678,0.38,0.112,0.882
110698,0.371,0.116,0.887
110724,0.37,0.117,0.895
110744,0.371,0.117,0.9
110765,0.378,0.111,0.883
110789,0.376,0.119,0.882
110809,0.37,0.119,0.885
110830,0.372,0.118,0.885
110854,0.379,0.111,0.885
110875,0.37,0.115,0.881
110895,0.377,0.113,0.884
110920,0.379,0.107,0.88
110940,0.373,0.114,0.885
110961,0.369,0.123,0.887
110986,0.373,0.117,0.889
111006,0.381,0.112,0.892
111026,0.383,0.112,0.885
111051,0.367,0.117,0.884
111071,0.371,0.115,0.898
111092,0.38,0.108,0.896
111117,0.375,0.117,0.879
