time_ms,ax,ay,az
11,0.185,0.049,0.947
31,0.186,0.047,0.942
56,0.19,0.05,0.935
76,0.188,0.048,0.929
101,0.188,0.042,0.929
122,0.18,0.048,0.945
146,0.187,0.045,0.933
166,0.189,0.047,0.941
191,0.192,0.042,0.939
212,0.182,0.045,0.938
236,0.19,0.044,0.933
256,0.193,0.042,0.935
281,0.181,0.041,0.939
301,0.189,0.034,0.953
326,0.186,0.046,0.933
346,0.187,0.046,0.945
371,0.189,0.047,0.936
391,0.184,0.044,0.946
416,0.192,0.042,0.944
437,0.189,0.041,0.937
461,0.191,0.052,0.917
482,0.185,0.049,0.925
506,0.187,0.04,0.933
527,0.186,0.053,0.929
551,0.182,0.038,0.948
572,0.183,0.037,0.95
597,0.179,0.04,0.945
617,0.191,0.032,0.941
641,0.185,0.039,0.944
662,0.186,0.045,0.942
687,0.189,0.041,0.934
708,0.184,0.045,0.948
731,0.184,0.048,0.947
752,0.183,0.042,0.946
773,0.183,0.043,0.93
797,0.181,0.041,0.94
818,0.19,0.047,0.947
842,0.19,0.046,0.942
862,0.184,0.04,0.939
887,0.179,0.041,0.935
908,0.186,0.048,0.937
932,0.187,0.037,0.942
953,0.184,0.051,0.936
977,0.183,0.044,0.938
998,0.186,0.045,0.938
1023,0.187,0.046,0.938
1043,0.184,0.042,0.941
1067,0.182,0.045,0.937
1088,0.182,0.041,0.933
1112,0.187,0.045,0.938
1133,0.191,0.047,0.938
1158,0.191,0.043,0.935
1178,0.19,0.048,0.94
1202,0.187,0.045,0.934
1224,0.185,0.039,0.942
1248,0.187,0.046,0.937
1268,0.191,0.031,0.948
1293,0.18,0.052,0.926
1317,0.182,0.048,0.939
1338,0.218,0.022,0.93
1362,0.177,0.051,0.943
1383,0.187,0.043,0.931
1407,0.186,0.042,0.937
1428,0.184,0.043,0.939
1452,0.183,0.046,0.938
1473,0.186,0.044,0.942
1497,0.185,0.046,0.939
1518,0.18,0.041,0.944
1543,0.185,0.047,0.936
1563,0.18,0.045,0.939
1588,0.186,0.043,0.94
1608,0.186,0.043,0.941
1633,0.184,0.044,0.946
1653,0.187,0.043,0.942
1678,0.183,0.042,0.941
1698,0.185,0.041,0.936
1723,0.185,0.039,0.931
1743,0.187,0.037,0.943
1768,0.182,0.04,0.94
1788,0.188,0.042,0.939
1813,0.182,0.038,0.943
1833,0.179,0.048,0.944
1858,0.186,0.043,0.942
1879,0.183,0.039,0.946
1903,0.187,0.044,0.935
1923,0.18,0.042,0.93
1948,0.184,0.046,0.945
1969,0.183,0.043,0.941
1993,0.182,0.045,0.934
2014,0.184,0.043,0.937
2038,0.187,0.045,0.938
2058,0.186,0.044,0.941
2079,0.182,0.05,0.936
2104,0.191,0.042,0.938
2124,0.183,0.042,0.938
2149,0.185,0.046,0.933
2169,0.185,0.043,0.935
2194,0.188,0.042,0.937
2214,0.181,0.041,0.931
2239,0.188,0.041,0.938
2259,0.184,0.04,0.945
2284,0.182,0.042,0.943
2305,0.183,0.042,0.945
2329,0.181,0.041,0.94
2349,0.187,0.049,0.941
2374,0.19,0.046,0.938
2394,0.186,0.041,0.944
2419,0.185,0.046,0.944
2440,0.187,0.041,0.939
2464,0.185,0.045,0.939
2485,0.184,0.043,0.938
2509,0.184,0.038,0.942
2530,0.19,0.041,0.944
2554,0.185,0.045,0.939
2575,0.188,0.046,0.939
2599,0.179,0.044,0.927
2620,0.182,0.037,0.937
2644,0.178,0.043,0.935
2665,0.184,0.041,0.938
2690,0.186,0.044,0.941
2710,0.18,0.043,0.933
2734,0.186,0.041,0.947
2755,0.186,0.043,0.942
2779,0.191,0.039,0.942
2800,0.185,0.037,0.945
2824,0.181,0.043,0.931
2845,0.185,0.037,0.926
2870,0.183,0.042,0.931
2890,0.186,0.039,0.937
2914,0.182,0.046,0.93
2935,0.187,0.042,0.942
2959,0.185,0.044,0.937
2980,0.182,0.043,0.945
3005,0.181,0.039,0.948
3025,0.179,0.04,0.938
3050,0.191,0.047,0.947
3070,0.185,0.042,0.939
3095,0.184,0.045,0.941
3120,0.182,0.044,0.938
3140,0.191,0.041,0.928
3164,0.182,0.05,0.933
3185,0.187,0.047,0.941
3209,0.187,0.044,0.931
3230,0.186,0.045,0.94
3254,0.181,0.048,0.941
3275,0.187,0.042,0.941
3299,0.188,0.041,0.931
3320,0.184,0.044,0.938
3345,0.186,0.045,0.932
3369,0.183,0.039,0.94
3390,0.181,0.041,0.947
3414,0.184,0.042,0.936
3435,0.177,0.048,0.942
3459,0.175,0.047,0.936
3480,0.179,0.048,0.945
3504,0.193,0.042,0.939
3525,0.185,0.043,0.941
3549,0.183,0.044,0.935
3570,0.188,0.037,0.937
3595,0.191,0.047,0.925
3619,0.179,0.036,0.97
3639,0.185,0.052,0.913
3664,0.181,0.042,0.936
3684,0.16,0.063,0.945
3709,0.182,0.04,0.94
3730,0.192,0.039,0.934
3754,0.199,0.037,0.928
3775,0.18,0.046,0.939
3799,0.174,0.051,0.945
3820,0.186,0.038,0.947
3844,0.177,0.045,0.947
3869,0.166,0.059,0.931
3889,0.189,0.051,0.933
3914,0.188,0.035,0.931
3934,0.181,0.044,0.941
3959,0.186,0.045,0.929
3979,0.187,0.038,0.935
4004,0.188,0.046,0.933
4025,0.187,0.045,0.943
4049,0.182,0.041,0.938
4070,0.183,0.046,0.948
4094,0.182,0.046,0.934
4119,0.197,0.033,0.955
4139,0.171,0.048,0.928
4164,0.191,0.045,0.949
4184,0.182,0.041,0.94
4209,0.185,0.042,0.948
4229,0.195,0.046,0.942
4254,0.181,0.042,0.937
4274,0.178,0.036,0.948
4299,0.166,0.056,0.932
4319,0.192,0.037,0.94
4344,0.173,0.054,0.931
4368,0.192,0.033,0.952
4389,0.173,0.05,0.943
4414,0.174,0.042,0.945
4434,0.181,0.038,0.937
4459,0.177,0.045,0.936
4479,0.176,0.056,0.931
4504,0.199,0.032,0.925
4524,0.187,0.043,0.934
4549,0.173,0.034,0.947
4569,0.17,0.052,0.955
4594,0.196,0.044,0.931
4618,0.186,0.049,0.938
4639,0.187,0.036,0.938
4663,0.179,0.043,0.951
4684,0.189,0.046,0.938
4708,0.181,0.043,0.949
4729,0.18,0.042,0.94
4754,0.189,0.039,0.938
4774,0.188,0.036,0.93
4799,0.181,0.046,0.95
4819,0.18,0.047,0.933
4844,0.193,0.042,0.945
4864,0.181,0.046,0.938
4889,0.186,0.049,0.934
4913,0.183,0.046,0.937
4934,0.171,0.044,0.943
4958,0.187,0.043,0.934
4979,0.175,0.046,0.929
5003,0.187,0.044,0.925
5024,0.192,0.043,0.923
5048,0.195,0.043,0.928
5069,0.207,0.03,0.924
5094,0.179,0.04,0.95
5114,0.173,0.052,0.932
5139,0.188,0.043,0.932
5163,0.185,0.044,0.934
5184,0.178,0.044,0.94
5208,0.183,0.046,0.937
5229,0.177,0.042,0.939
5253,0.181,0.044,0.934
5274,0.189,0.04,0.934
5298,0.179,0.046,0.943
5319,0.184,0.048,0.943
5343,0.177,0.042,0.938
5364,0.179,0.036,0.931
5388,0.177,0.043,0.953
5413,0.187,0.039,0.935
5434,0.182,0.042,0.93
5458,0.184,0.04,0.941
5479,0.185,0.046,0.942
5503,0.192,0.043,0.947
5524,0.178,0.044,0.949
5548,0.187,0.04,0.938
5569,0.187,0.04,0.944
5593,0.191,0.04,0.945
5614,0.185,0.041,0.943
5638,0.187,0.043,0.928
5663,0.188,0.049,0.928
5683,0.177,0.045,0.938
5708,0.186,0.044,0.94
5728,0.186,0.047,0.945
5753,0.182,0.05,0.946
5773,0.183,0.042,0.952
5798,0.187,0.038,0.937
5819,0.178,0.036,0.942
5843,0.193,0.045,0.932
5863,0.184,0.044,0.939
5888,0.178,0.042,0.956
5913,0.174,0.052,0.951
5933,0.183,0.043,0.934
5958,0.192,0.042,0.938
5979,0.182,0.044,0.94
6003,0.173,0.042,0.939
6023,0.192,0.037,0.934
6048,0.186,0.045,0.951
6068,0.19,0.037,0.945
6093,0.19,0.039,0.94
6113,0.182,0.041,0.932
6138,0.185,0.048,0.921
6158,0.181,0.039,0.939
6183,0.188,0.047,0.932
6207,0.186,0.044,0.948
6228,0.189,0.041,0.938
6253,0.186,0.042,0.929
6273,0.191,0.037,0.931
6298,0.18,0.044,0.935
6318,0.185,0.043,0.938
6343,0.191,0.043,0.932
6363,0.184,0.041,0.947
6389,0.189,0.04,0.935
6408,0.187,0.044,0.955
6433,0.199,0.043,0.928
6457,0.19,0.048,0.935
6478,0.186,0.048,0.937
6502,0.175,0.054,0.923
6523,0.183,0.043,0.948
6548,0.189,0.044,0.927
6568,0.184,0.041,0.933
6593,0.188,0.039,0.957
6613,0.185,0.046,0.941
6638,0.18,0.036,0.936
6658,0.184,0.033,0.936
6683,0.188,0.038,0.93
6707,0.183,0.047,0.938
6728,0.181,0.046,0.956
6752,0.178,0.048,0.943
6773,0.192,0.044,0.924
6797,0.186,0.039,0.923
6818,0.174,0.048,0.938
6843,0.181,0.047,0.947
6863,0.195,0.04,0.951
6888,0.178,0.046,0.938
6908,0.182,0.047,0.946
6932,0.183,0.043,0.943
6957,0.181,0.042,0.938
6978,0.187,0.042,0.941
7002,0.191,0.044,0.944
7023,0.192,0.04,0.944
7047,0.184,0.045,0.936
7068,0.192,0.042,0.932
7092,0.184,0.041,0.939
7113,0.183,0.042,0.945
7137,0.182,0.044,0.942
7158,0.182,0.046,0.94
7182,0.183,0.042,0.936
7207,0.184,0.045,0.941
7227,0.192,0.044,0.936
7253,0.187,0.042,0.946
7273,0.182,0.045,0.935
7293,0.19,0.042,0.931
7317,0.18,0.045,0.942
7338,0.186,0.04,0.937
7363,0.187,0.042,0.928
7383,0.188,0.046,0.948
7408,0.185,0.043,0.94
7428,0.183,0.044,0.944
7453,0.19,0.038,0.944
7473,0.182,0.046,0.939
7498,0.186,0.042,0.931
7518,0.182,0.045,0.943
7543,0.183,0.042,0.934
7563,0.187,0.044,0.947
7588,0.182,0.051,0.944
7608,0.178,0.044,0.942
7633,0.183,0.043,0.945
7654,0.186,0.042,0.937
7678,0.178,0.041,0.936
7698,0.186,0.039,0.942
7723,0.183,0.042,0.94
7743,0.185,0.037,0.935
7768,0.185,0.038,0.93
7788,0.185,0.043,0.939
7813,0.183,0.044,0.938
7834,0.177,0.042,0.935
7858,0.183,0.048,0.936
7879,0.181,0.039,0.944
7904,0.185,0.042,0.948
7924,0.185,0.042,0.936
7948,0.179,0.041,0.939
7969,0.185,0.044,0.938
7993,0.182,0.042,0.937
8014,0.184,0.035,0.932
8038,0.183,0.045,0.938
8059,0.185,0.048,0.931
8083,0.189,0.046,0.936
8104,0.184,0.043,0.948
8124,0.185,0.042,0.943
8149,0.183,0.042,0.933
8170,0.179,0.04,0.939
8194,0.182,0.045,0.946
8214,0.187,0.043,0.928
8239,0.185,0.046,0.944
8260,0.179,0.042,0.941
8284,0.18,0.044,0.941
8305,0.183,0.041,0.933
8329,0.179,0.04,0.938
8350,0.184,0.043,0.944
8374,0.182,0.041,0.947
8395,0.186,0.043,0.944
8420,0.181,0.044,0.941
8440,0.185,0.042,0.945
8464,0.188,0.038,0.941
8485,0.18,0.049,0.94
8509,0.185,0.042,0.945
8530,0.186,0.048,0.947
8554,0.185,0.035,0.938
8579,0.177,0.045,0.946
8599,0.185,0.042,0.938
8624,0.185,0.035,0.938
8645,0.185,0.038,0.947
8669,0.189,0.044,0.931
8690,0.18,0.04,0.945
8714,0.184,0.042,0.935
8735,0.185,0.033,0.944
8759,0.186,0.035,0.939
8780,0.182,0.044,0.94
8804,0.178,0.049,0.948
8825,0.187,0.037,0.946
8849,0.186,0.04,0.94
8874,0.179,0.042,0.926
8895,0.181,0.043,0.947
8919,0.182,0.038,0.943
8940,0.192,0.041,0.946
8964,0.186,0.043,0.935
8984,0.175,0.042,0.943
9009,0.191,0.044,0.938
9029,0.181,0.045,0.939
9054,0.187,0.033,0.935
9075,0.183,0.042,0.945
9099,0.178,0.046,0.943
9124,0.182,0.047,0.938
9144,0.181,0.038,0.939
9169,0.196,0.039,0.931
9190,0.186,0.043,0.942
9214,0.181,0.045,0.939
9234,0.187,0.038,0.941
9259,0.176,0.044,0.947
9279,0.187,0.043,0.929
9304,0.187,0.037,0.936
9325,0.188,0.039,0.938
9349,0.186,0.043,0.941
9374,0.191,0.049,0.931
9394,0.172,0.049,0.954
9419,0.185,0.042,0.946
9440,0.179,0.053,0.926
9464,0.187,0.043,0.927
9484,0.175,0.045,0.955
9509,0.177,0.043,0.933
9529,0.183,0.046,0.939
9554,0.175,0.038,0.955
9574,0.184,0.045,0.935
9599,0.18,0.045,0.94
9619,0.189,0.044,0.933
9644,0.173,0.044,0.931
9669,0.187,0.039,0.936
9689,0.186,0.044,0.936
9714,0.181,0.046,0.939
9734,0.179,0.042,0.937
9759,0.192,0.041,0.924
9779,0.191,0.041,0.931
9804,0.179,0.042,0.942
9824,0.197,0.041,0.931
9849,0.181,0.049,0.934
9869,0.194,0.045,0.934
9894,0.193,0.048,0.936
9918,0.18,0.043,0.933
9939,0.188,0.042,0.939
9963,0.19,0.039,0.935
9984,0.172,0.05,0.941
10009,0.186,0.033,0.941
10029,0.175,0.047,0.937
10053,0.187,0.047,0.936
10074,0.169,0.05,0.953
10098,0.191,0.029,0.947
10119,0.186,0.034,0.931
10144,0.199,0.032,0.941
10168,0.187,0.047,0.938
10189,0.197,0.044,0.921
10213,0.191,0.045,0.921
10234,0.176,0.047,0.954
10258,0.18,0.045,0.935
10279,0.193,0.043,0.931
10304,0.186,0.046,0.941
10324,0.187,0.043,0.937
10348,0.183,0.043,0.938
10369,0.182,0.04,0.944
10393,0.189,0.042,0.927
10418,0.188,0.04,0.94
10438,0.175,0.036,0.963
10463,0.187,0.046,0.943
10483,0.188,0.04,0.938
10508,0.186,0.04,0.941
10529,0.186,0.04,0.944
10553,0.169,0.044,0.958
10574,0.176,0.048,0.949
10598,0.196,0.033,0.938
10619,0.184,0.042,0.952
10643,0.183,0.042,0.938
10664,0.183,0.037,0.944
10689,0.183,0.046,0.931
10713,0.184,0.041,0.938
10734,0.184,0.04,0.944
10758,0.185,0.047,0.937
10779,0.188,0.045,0.925
10803,0.18,0.045,0.938
10824,0.194,0.035,0.931
10848,0.22,0.026,0.946
10869,0.176,0.046,0.949
10893,0.186,0.043,0.941
10914,0.172,0.044,0.94
10938,0.182,0.045,0.935
10963,0.181,0.044,0.94
10983,0.188,0.043,0.932
11008,0.182,0.04,0.944
11029,0.179,0.045,0.939
11053,0.192,0.043,0.938
11074,0.185,0.045,0.931
11098,0.196,0.047,0.92
11118,0.184,0.044,0.946
11143,0.182,0.043,0.945
11163,0.186,0.045,0.931
11188,0.183,0.042,0.93
11213,0.196,0.043,0.92
11233,0.189,0.038,0.936
11258,0.176,0.042,0.966
11278,0.184,0.042,0.945
11303,0.179,0.042,0.943
11324,0.19,0.049,0.94
11348,0.182,0.038,0.941
11368,0.19,0.036,0.941
11393,0.176,0.044,0.944
11413,0.184,0.041,0.928
11438,0.19,0.041,0.942
11458,0.188,0.043,0.941
11483,0.19,0.043,0.955
11507,0.196,0.039,0.93
11528,0.179,0.05,0.941
11552,0.188,0.036,0.945
11574,0.187,0.04,0.932
11598,0.187,0.035,0.953
11618,0.183,0.04,0.939
11643,0.2,0.038,0.944
11663,0.172,0.054,0.94
11688,0.206,0.031,0.939
11708,0.182,0.043,0.944
11733,0.188,0.044,0.944
11757,0.183,0.044,0.944
11778,0.184,0.045,0.934
11803,0.181,0.046,0.939
11824,0.189,0.042,0.931
11847,0.188,0.042,0.935
11868,0.184,0.037,0.938
11892,0.188,0.041,0.946
11913,0.18,0.035,0.942
11938,0.186,0.044,0.942
11958,0.186,0.045,0.933
11983,0.187,0.04,0.945
12004,0.183,0.042,0.942
12024,0.181,0.041,0.932
12048,0.181,0.046,0.935
12069,0.193,0.04,0.948
12093,0.183,0.042,0.939
12114,0.186,0.044,0.948
12139,0.184,0.046,0.941
12159,0.182,0.041,0.941
12183,0.184,0.046,0.933
12204,0.186,0.039,0.948
12229,0.185,0.039,0.933
12249,0.172,0.057,0.942
12274,0.196,0.035,0.939
12294,0.195,0.034,0.933
12319,0.177,0.043,0.939
12339,0.194,0.038,0.938
12364,0.187,0.045,0.923
12384,0.175,0.051,0.949
12409,0.191,0.044,0.913
12429,0.172,0.05,0.954
12454,0.179,0.035,0.96
12474,0.197,0.04,0.931
12499,0.175,0.05,0.938
12520,0.192,0.044,0.938
12544,0.187,0.044,0.938
12564,0.187,0.046,0.939
12589,0.176,0.048,0.933
12609,0.195,0.045,0.924
12634,0.182,0.058,0.933
12654,0.208,0.035,0.925
12679,0.18,0.045,0.934
12699,0.21,0.029,0.937
12724,0.182,0.043,0.935
12744,0.189,0.047,0.946
12769,0.179,0.045,0.939
12790,0.185,0.045,0.935
12814,0.193,0.054,0.934
12834,0.188,0.039,0.935
12859,0.176,0.046,0.951
12880,0.196,0.038,0.948
12900,0.19,0.044,0.937
12925,0.177,0.048,0.935
12945,0.186,0.047,0.933
12970,0.183,0.047,0.934
12990,0.196,0.037,0.934
13015,0.183,0.042,0.936
13035,0.189,0.04,0.943
13060,0.185,0.042,0.941
13080,0.19,0.045,0.942
13105,0.183,0.042,0.948
13125,0.189,0.043,0.927
13150,0.192,0.044,0.93
13171,0.17,0.056,0.943
13195,0.189,0.041,0.945
13215,0.184,0.049,0.93
13241,0.187,0.041,0.946
13260,0.18,0.048,0.945
13285,0.19,0.041,0.943
13306,0.182,0.042,0.939
13330,0.183,0.041,0.946
13351,0.195,0.044,0.932
13375,0.186,0.045,0.941
13396,0.192,0.039,0.937
13420,0.178,0.036,0.929
13441,0.184,0.045,0.941
13465,0.182,0.038,0.932
13486,0.18,0.042,0.933
13510,0.179,0.054,0.93
13531,0.197,0.045,0.928
13556,0.192,0.048,0.929
13576,0.182,0.038,0.94
13601,0.198,0.046,0.929
13621,0.181,0.052,0.937
13645,0.192,0.049,0.945
13666,0.195,0.036,0.938
13690,0.205,0.036,0.912
13711,0.185,0.045,0.932
13731,0.194,0.045,0.941
13757,0.194,0.046,0.931
13777,0.196,0.038,0.943
13801,0.195,0.047,0.937
13822,0.19,0.045,0.931
13846,0.185,0.048,0.939
13867,0.188,0.042,0.942
13891,0.197,0.034,0.932
13912,0.18,0.043,0.943
13937,0.202,0.039,0.958
13957,0.201,0.042,0.926
13981,0.191,0.04,0.95
14002,0.193,0.041,0.949
14026,0.193,0.042,0.944
14047,0.196,0.044,0.933
14072,0.197,0.042,0.935
14092,0.186,0.045,0.94
14116,0.195,0.04,0.936
14137,0.19,0.044,0.935
14161,0.187,0.04,0.945
14182,0.187,0.038,0.937
14207,0.187,0.041,0.94
14227,0.192,0.044,0.936
14252,0.188,0.041,0.931
14273,0.185,0.047,0.949
14297,0.194,0.042,0.94
14318,0.189,0.04,0.938
14342,0.185,0.042,0.943
14362,0.192,0.039,0.938
14387,0.193,0.048,0.921
14407,0.185,0.045,0.937
14432,0.197,0.043,0.931
14452,0.178,0.046,0.951
14477,0.19,0.042,0.936
14497,0.182,0.048,0.949
14522,0.201,0.048,0.917
14542,0.188,0.042,0.939
14563,0.183,0.046,0.934
14587,0.184,0.046,0.934
14608,0.188,0.043,0.944
14633,0.19,0.042,0.945
14653,0.185,0.042,0.934
14678,0.186,0.047,0.939
14698,0.195,0.046,0.936
14723,0.189,0.039,0.959
14743,0.187,0.045,0.944
14768,0.187,0.037,0.942
14789,0.199,0.041,0.934
14813,0.194,0.042,0.939
14833,0.195,0.042,0.938
14858,0.194,0.048,0.939
14878,0.19,0.042,0.933
14903,0.196,0.044,0.933
14924,0.194,0.041,0.928
14948,0.196,0.039,0.943
14969,0.198,0.041,0.933
14993,0.197,0.037,0.937
15013,0.191,0.039,0.932
15038,0.187,0.045,0.939
15059,0.196,0.039,0.936
15083,0.186,0.043,0.938
15103,0.196,0.046,0.933
15128,0.188,0.044,0.937
15149,0.195,0.051,0.935
15173,0.193,0.04,0.938
15194,0.192,0.048,0.941
15218,0.189,0.048,0.929
15239,0.196,0.043,0.936
15263,0.176,0.047,0.955
15284,0.185,0.046,0.946
15308,0.184,0.038,0.936
15329,0.196,0.037,0.942
15353,0.195,0.04,0.942
15374,0.19,0.043,0.95
15394,0.195,0.045,0.937
15419,0.191,0.044,0.932
15440,0.197,0.041,0.932
15464,0.191,0.046,0.946
15484,0.186,0.042,0.953
15509,0.188,0.043,0.944
15529,0.192,0.05,0.943
15555,0.187,0.044,0.935
15575,0.192,0.039,0.941
15599,0.187,0.045,0.935
15620,0.199,0.036,0.94
15644,0.181,0.057,0.932
15665,0.194,0.045,0.931
15690,0.183,0.055,0.948
15710,0.199,0.031,0.942
15735,0.208,0.042,0.936
15755,0.161,0.081,0.918
15779,0.217,0.037,0.937
15800,0.192,0.041,0.954
15825,0.212,0.039,0.937
15845,0.182,0.048,0.928
15870,0.198,0.049,0.929
15890,0.198,0.031,0.946
15914,0.204,0.081,0.92
15935,0.195,0.044,0.953
15960,0.187,0.039,0.948
15980,0.18,0.055,0.944
16005,0.206,0.053,0.924
16025,0.192,0.049,0.942
16050,0.193,0.042,0.945
16070,0.195,0.054,0.934
16095,0.19,0.051,0.938
16115,0.198,0.048,0.937
16140,0.2,0.044,0.936
16160,0.196,0.052,0.935
16185,0.198,0.047,0.94
16205,0.194,0.049,0.949
16226,0.202,0.048,0.939
16250,0.198,0.049,0.941
16271,0.198,0.051,0.935
16295,0.199,0.046,0.935
16316,0.199,0.052,0.935
16340,0.195,0.049,0.935
16361,0.194,0.054,0.941
16386,0.196,0.041,0.935
16407,0.199,0.045,0.932
16431,0.199,0.042,0.939
16451,0.204,0.043,0.935
16476,0.197,0.053,0.933
16496,0.199,0.056,0.943
16521,0.196,0.048,0.94
16541,0.205,0.05,0.941
16566,0.207,0.042,0.944
16586,0.164,0.066,0.941
16611,0.214,0.039,0.934
16631,0.204,0.045,0.934
16656,0.19,0.054,0.942
16676,0.202,0.041,0.935
16701,0.187,0.051,0.938
16722,0.208,0.04,0.927
16746,0.197,0.044,0.939
16766,0.199,0.045,0.946
16791,0.198,0.043,0.937
16812,0.196,0.053,0.938
16836,0.194,0.05,0.937
16857,0.195,0.042,0.936
16881,0.195,0.05,0.935
16902,0.192,0.049,0.939
16926,0.192,0.052,0.935
16947,0.195,0.047,0.948
16971,0.201,0.053,0.936
16992,0.193,0.048,0.923
17012,0.2,0.039,0.936
17037,0.192,0.05,0.941
17057,0.201,0.044,0.935
17082,0.192,0.053,0.935
17103,0.196,0.049,0.942
17127,0.2,0.052,0.936
17147,0.196,0.052,0.935
17172,0.202,0.044,0.934
17192,0.199,0.05,0.931
17217,0.196,0.051,0.928
17238,0.2,0.047,0.943
17262,0.201,0.046,0.943
17283,0.198,0.049,0.946
17307,0.202,0.048,0.937
17328,0.2,0.046,0.94
17352,0.193,0.046,0.937
17373,0.197,0.044,0.94
17397,0.2,0.041,0.932
17418,0.198,0.048,0.938
17442,0.198,0.05,0.937
17463,0.193,0.052,0.935
17487,0.2,0.055,0.933
17508,0.2,0.049,0.928
17532,0.201,0.047,0.936
17553,0.2,0.043,0.941
17577,0.196,0.049,0.943
17598,0.2,0.044,0.94
17623,0.198,0.052,0.939
17643,0.19,0.046,0.93
17668,0.197,0.048,0.939
17688,0.194,0.047,0.937
17713,0.191,0.044,0.936
17733,0.2,0.047,0.941
17758,0.195,0.051,0.938
17778,0.188,0.055,0.948
17799,0.197,0.051,0.93
17823,0.202,0.05,0.934
17844,0.2,0.045,0.932
17869,0.201,0.045,0.937
17889,0.198,0.045,0.929
17913,0.201,0.047,0.938
17934,0.202,0.045,0.937
17958,0.198,0.046,0.939
17979,0.196,0.055,0.935
18004,0.189,0.05,0.942
18024,0.199,0.048,0.932
18048,0.203,0.041,0.93
18070,0.201,0.046,0.931
18093,0.198,0.052,0.941
18114,0.199,0.05,0.929
18139,0.199,0.052,0.937
18159,0.189,0.047,0.943
18184,0.197,0.048,0.93
18204,0.188,0.051,0.943
18229,0.196,0.046,0.934
18249,0.198,0.047,0.939
18274,0.198,0.042,0.926
18294,0.194,0.045,0.936
18319,0.2,0.051,0.937
18340,0.198,0.052,0.935
18364,0.194,0.045,0.941
18384,0.202,0.047,0.937
18409,0.198,0.049,0.932
18429,0.196,0.048,0.935
18454,0.189,0.046,0.935
18474,0.202,0.055,0.924
18499,0.189,0.049,0.935
18519,0.2,0.048,0.941
18540,0.199,0.053,0.937
18564,0.196,0.049,0.934
18585,0.197,0.047,0.934
18610,0.192,0.046,0.936
18630,0.2,0.048,0.941
18655,0.192,0.046,0.932
18675,0.199,0.05,0.931
18700,0.2,0.048,0.929
18720,0.195,0.047,0.938
18745,0.194,0.051,0.929
18765,0.196,0.052,0.934
18790,0.198,0.046,0.935
18810,0.197,0.046,0.933
18835,0.199,0.042,0.935
18855,0.197,0.047,0.929
18880,0.194,0.054,0.927
18900,0.194,0.044,0.939
18925,0.195,0.046,0.93
18945,0.203,0.05,0.943
18970,0.192,0.049,0.936
18991,0.201,0.047,0.942
19015,0.194,0.048,0.94
19036,0.195,0.045,0.938
19060,0.197,0.046,0.937
19081,0.199,0.047,0.935
19105,0.198,0.047,0.936
19126,0.195,0.047,0.935
19150,0.197,0.051,0.939
19171,0.202,0.049,0.935
19195,0.201,0.048,0.946
19216,0.192,0.048,0.947
19240,0.198,0.05,0.94
19261,0.198,0.047,0.924
19286,0.197,0.052,0.933
19306,0.204,0.05,0.936
19330,0.199,0.048,0.94
19351,0.198,0.054,0.937
19371,0.2,0.047,0.945
19396,0.199,0.048,0.947
19416,0.202,0.052,0.935
19441,0.192,0.049,0.935
19462,0.198,0.051,0.938
19486,0.196,0.053,0.933
19507,0.195,0.045,0.944
19531,0.198,0.04,0.937
19552,0.191,0.053,0.93
19576,0.21,0.046,0.937
19597,0.194,0.048,0.938
19622,0.205,0.049,0.938
19642,0.201,0.05,0.932
19666,0.195,0.043,0.934
19687,0.192,0.042,0.932
19711,0.197,0.049,0.943
19732,0.2,0.048,0.936
19756,0.187,0.052,0.945
19777,0.197,0.04,0.936
19801,0.198,0.041,0.933
19822,0.191,0.044,0.938
19846,0.196,0.047,0.937
19867,0.202,0.052,0.934
19892,0.195,0.046,0.936
19912,0.196,0.05,0.936
19937,0.196,0.052,0.928
19957,0.196,0.045,0.926
19982,0.195,0.053,0.941
20002,0.198,0.05,0.93
20027,0.208,0.054,0.936
20047,0.195,0.049,0.932
20072,0.197,0.049,0.939
20092,0.199,0.045,0.938
20117,0.196,0.048,0.936
20138,0.203,0.047,0.942
20158,0.202,0.051,0.916
20182,0.195,0.046,0.929
20203,0.196,0.052,0.938
20228,0.199,0.052,0.936
20248,0.192,0.049,0.936
20273,0.193,0.052,0.934
20293,0.2,0.048,0.938
20318,0.198,0.051,0.94
20338,0.195,0.051,0.934
20363,0.201,0.038,0.956
20383,0.2,0.044,0.931
20408,0.219,0.042,0.913
20428,0.184,0.059,0.94
20453,0.243,0.018,0.937
20474,0.187,0.05,0.95
20498,0.226,0.033,0.907
20518,0.187,0.059,0.916
20543,0.201,0.043,0.932
20563,0.2,0.039,0.937
20588,0.202,0.044,0.94
20608,0.183,0.058,0.917
20633,0.198,0.041,0.94
20654,0.197,0.031,0.936
20678,0.187,0.035,0.958
20698,0.195,0.04,0.949
20723,0.189,0.049,0.945
20744,0.199,0.047,0.929
20768,0.194,0.049,0.936
20789,0.193,0.052,0.941
20813,0.185,0.052,0.939
20834,0.206,0.035,0.942
20858,0.188,0.045,0.946
20879,0.192,0.041,0.943
20904,0.192,0.047,0.939
20924,0.199,0.042,0.936
20944,0.195,0.05,0.935
20969,0.208,0.042,0.933
20990,0.194,0.043,0.936
21014,0.191,0.046,0.939
21034,0.187,0.041,0.939
21059,0.188,0.039,0.934
21079,0.179,0.06,0.91
21104,0.185,0.047,0.949
21124,0.201,0.036,0.945
21149,0.17,0.052,0.953
21169,0.208,0.037,0.925
21194,0.18,0.047,0.958
21215,0.175,0.052,0.947
21240,0.175,0.064,0.924
21260,0.179,0.045,0.957
21284,0.216,0.024,0.943
21305,0.225,0.031,0.932
21329,0.195,0.054,0.926
21350,0.187,0.035,0.966
21374,0.189,0.038,0.954
21395,0.21,0.034,0.949
21420,0.242,0.03,0.913
21440,0.177,0.078,0.912
21464,0.2,0.04,0.952
21485,0.213,0.034,0.934
21509,0.178,0.061,0.932
21530,0.209,0.035,0.933
21554,0.189,0.049,0.934
21575,0.195,0.044,0.936
21599,0.199,0.047,0.93
21621,0.157,0.057,0.975
21644,0.174,0.053,0.948
21665,0.164,0.06,0.982
21690,0.169,0.05,0.978
21710,0.23,0.046,0.9
21731,0.224,0.037,0.936
21755,0.191,0.069,0.904
21776,0.145,0.073,0.969
21800,0.263,0.007,0.924
21821,0.182,0.056,0.933
21845,0.219,0.036,0.917
21866,0.189,0.056,0.939
21890,0.203,0.046,0.928
21911,0.219,0.048,0.886
21935,0.202,0.052,0.92
21956,0.174,0.045,0.951
21980,0.196,0.046,0.939
22001,0.201,0.043,0.927
22025,0.193,0.055,0.932
22046,0.183,0.035,0.967
22071,0.201,0.034,0.961
22091,0.192,0.044,0.949
22115,0.202,0.052,0.922
22136,0.196,0.052,0.932
22161,0.205,0.042,0.938
22181,0.198,0.047,0.936
22206,0.202,0.045,0.938
22226,0.189,0.047,0.954
22251,0.206,0.033,0.938
22271,0.195,0.047,0.933
22296,0.187,0.055,0.941
22316,0.196,0.053,0.936
22341,0.204,0.042,0.933
22361,0.199,0.043,0.932
22386,0.194,0.041,0.942
22407,0.198,0.047,0.934
22431,0.194,0.042,0.938
22452,0.195,0.041,0.939
22476,0.195,0.05,0.94
22496,0.2,0.035,0.935
22521,0.191,0.043,0.935
22542,0.193,0.045,0.942
22562,0.199,0.035,0.932
22587,0.193,0.047,0.934
22607,0.199,0.043,0.935
22632,0.19,0.047,0.941
22652,0.203,0.035,0.949
22677,0.192,0.047,0.94
22697,0.189,0.048,0.943
22722,0.204,0.039,0.932
22742,0.189,0.049,0.941
22767,0.209,0.047,0.925
22788,0.2,0.047,0.93
22812,0.195,0.05,0.938
22845,0.199,0.049,0.938
22881,0.19,0.043,0.933
22914,0.2,0.033,0.95
22947,0.201,0.05,0.935
22984,0.184,0.036,0.937
23012,0.197,0.048,0.94
23033,0.201,0.035,0.941
23053,0.196,0.04,0.939
23078,0.192,0.046,0.933
23098,0.204,0.039,0.927
23119,0.198,0.042,0.942
23144,0.197,0.037,0.945
23164,0.201,0.052,0.941
23185,0.197,0.04,0.947
23213,0.2,0.042,0.941
23242,0.197,0.042,0.942
23271,0.202,0.051,0.935
23299,0.199,0.048,0.934
23328,0.198,0.039,0.948
23353,0.198,0.045,0.928
23381,0.195,0.043,0.929
23406,0.185,0.036,0.946
23426,0.198,0.045,0.937
23447,0.199,0.047,0.933
23471,0.2,0.045,0.935
23492,0.192,0.048,0.934
23512,0.204,0.045,0.935
23537,0.194,0.046,0.929
23557,0.194,0.038,0.932
23586,0.191,0.036,0.94
23615,0.202,0.029,0.937
23643,0.201,0.045,0.948
23668,0.192,0.039,0.938
23697,0.192,0.043,0.932
23725,0.202,0.048,0.938
23754,0.196,0.044,0.939
23782,0.197,0.046,0.939
23811,0.197,0.048,0.94
23832,0.194,0.046,0.941
23853,0.196,0.04,0.944
23881,0.199,0.045,0.939
23910,0.195,0.04,0.933
23939,0.195,0.04,0.939
23967,0.199,0.048,0.945
23995,0.198,0.038,0.933
24024,0.194,0.044,0.942
24049,0.199,0.043,0.934
24078,0.187,0.044,0.933
24106,0.202,0.038,0.936
24135,0.202,0.037,0.93
24163,0.198,0.045,0.926
24192,0.196,0.036,0.927
24213,0.198,0.05,0.939
24233,0.195,0.048,0.924
24258,0.205,0.043,0.939
24287,0.198,0.046,0.936
24311,0.202,0.04,0.944
24340,0.203,0.034,0.949
24369,0.197,0.042,0.936
24397,0.199,0.049,0.933
24426,0.198,0.037,0.937
24455,0.198,0.042,0.925
24475,0.198,0.044,0.925
24504,0.199,0.049,0.93
24532,0.199,0.049,0.943
24561,0.199,0.044,0.934
24589,0.194,0.045,0.933
24614,0.198,0.045,0.938
24643,0.198,0.043,0.941
24672,0.203,0.041,0.937
24700,0.207,0.04,0.93
24729,0.2,0.046,0.937
24757,0.201,0.043,0.945
24778,0.201,0.044,0.938
24799,0.201,0.046,0.935
24823,0.195,0.044,0.943
24843,0.199,0.042,0.943
24864,0.199,0.042,0.94
24893,0.205,0.045,0.938
24922,0.204,0.035,0.94
24950,0.2,0.039,0.93
24978,0.197,0.04,0.933
25007,0.198,0.042,0.944
25036,0.198,0.05,0.938
25060,0.197,0.038,0.933
25090,0.193,0.041,0.94
25118,0.196,0.047,0.935
25146,0.202,0.043,0.936
25175,0.199,0.044,0.93
25204,0.2,0.041,0.932
25232,0.19,0.048,0.938
25257,0.205,0.048,0.927
25286,0.198,0.039,0.942
25314,0.196,0.039,0.925
25343,0.215,0.025,0.982
25372,0.207,0.043,0.938
25401,0.198,0.04,0.94
25429,0.198,0.043,0.938
25454,0.199,0.043,0.941
25482,0.201,0.041,0.934
25511,0.207,0.047,0.938
25540,0.199,0.043,0.946
25569,0.197,0.041,0.93
25597,0.199,0.043,0.942
25626,0.215,0.017,0.949
25650,0.2,0.043,0.928
25679,0.193,0.039,0.962
25708,0.214,0.034,0.926
25740,0.216,0.034,0.929
25769,0.196,0.049,0.94
25798,0.201,0.039,0.936
25826,0.206,0.046,0.936
25856,0.187,0.046,0.95
25876,0.202,0.038,0.936
25904,0.201,0.042,0.939
25937,0.202,0.04,0.928
25966,0.205,0.041,0.94
25994,0.203,0.041,0.934
26023,0.2,0.044,0.94
26052,0.207,0.039,0.956
26080,0.201,0.046,0.933
26105,0.198,0.044,0.932
26134,0.197,0.044,0.947
26162,0.207,0.045,0.93
26191,0.208,0.042,0.928
26220,0.194,0.042,0.936
26248,0.2,0.045,0.927
26277,0.199,0.044,0.932
26302,0.209,0.045,0.942
26330,0.196,0.046,0.932
26359,0.213,0.043,0.937
26383,0.199,0.04,0.946
26404,0.198,0.042,0.938
26432,0.198,0.04,0.939
26461,0.204,0.05,0.93
26486,0.206,0.045,0.938
26514,0.206,0.032,0.931
26543,0.204,0.04,0.94
26572,0.205,0.04,0.936
26601,0.22,0.026,0.945
26629,0.202,0.039,0.923
26658,0.207,0.041,0.956
26682,0.201,0.039,0.931
26711,0.207,0.045,0.93
26740,0.205,0.045,0.958
26772,0.204,0.044,0.93
26801,0.2,0.045,0.935
26830,0.202,0.046,0.936
26859,0.198,0.042,0.934
26888,0.205,0.049,0.94
26908,0.205,0.041,0.942
26932,0.206,0.039,0.938
26953,0.21,0.046,0.931
26973,0.2,0.043,0.945
27002,0.203,0.048,0.938
27035,0.201,0.041,0.94
27063,0.205,0.052,0.938
27092,0.203,0.039,0.935
27121,0.197,0.049,0.941
27149,0.204,0.043,0.933
27178,0.205,0.046,0.926
27207,0.208,0.041,0.927
27231,0.204,0.047,0.956
27260,0.207,0.042,0.911
27289,0.2,0.039,0.926
27309,0.205,0.047,0.941
27334,0.202,0.048,0.933
27354,0.208,0.043,0.948
27375,0.194,0.062,0.941
27400,0.194,0.052,0.931
27420,0.216,0.041,0.936
27440,0.201,0.041,0.967
27465,0.21,0.044,0.938
27485,0.205,0.044,0.939
27506,0.204,0.041,0.928
27530,0.204,0.047,0.945
27551,0.205,0.046,0.934
27571,0.205,0.04,0.938
27596,0.209,0.046,0.93
27616,0.198,0.043,0.937
27638,0.209,0.04,0.935
27661,0.205,0.038,0.928
27682,0.206,0.044,0.933
27703,0.201,0.045,0.94
27727,0.202,0.045,0.926
27747,0.207,0.041,0.937
27768,0.205,0.039,0.929
27792,0.207,0.046,0.946
27813,0.217,0.045,0.917
27833,0.197,0.055,0.932
27858,0.2,0.047,0.934
27878,0.206,0.043,0.943
27899,0.21,0.039,0.93
27924,0.209,0.054,0.95
27944,0.151,0.082,0.958
27964,0.235,0.015,0.949
27989,0.185,0.065,0.928
28009,0.217,0.037,0.934
28030,0.206,0.044,0.945
28055,0.21,0.036,0.94
28075,0.181,0.049,0.95
28099,0.204,0.056,0.942
28120,0.201,0.044,0.927
28141,0.182,0.057,0.958
28165,0.241,0.021,1.0
28186,0.15,0.053,0.918
28207,0.21,0.043,0.937
28230,0.213,0.045,0.94
28252,0.193,0.05,0.94
28272,0.214,0.045,0.928
28296,0.203,0.054,0.927
28316,0.209,0.047,0.941
28337,0.203,0.045,0.943
28362,0.206,0.042,0.935
28382,0.209,0.042,0.95
28403,0.199,0.052,0.938
28427,0.217,0.036,0.939
28448,0.2,0.048,0.924
28469,0.204,0.044,0.942
28493,0.224,0.043,0.941
28513,0.2,0.056,0.942
28534,0.217,0.042,0.945
28558,0.206,0.042,0.932
28579,0.201,0.04,0.943
28599,0.216,0.044,0.939
28624,0.2,0.045,0.953
28645,0.209,0.04,0.949
28665,0.207,0.053,0.934
28690,0.21,0.044,0.937
28710,0.205,0.043,0.929
28730,0.211,0.051,0.939
28755,0.208,0.047,0.939
28775,0.21,0.046,0.942
28796,0.205,0.051,0.941
28820,0.209,0.043,0.94
28841,0.204,0.047,0.945
28862,0.23,0.044,0.918
28886,0.202,0.049,0.935
28907,0.21,0.039,0.92
28927,0.197,0.048,0.935
28952,0.206,0.047,0.928
28972,0.207,0.046,0.934
28992,0.211,0.044,0.932
29017,0.211,0.042,0.944
29038,0.202,0.047,0.938
29058,0.206,0.041,0.927
29082,0.205,0.043,0.931
29103,0.205,0.048,0.938
29124,0.203,0.045,0.929
29148,0.214,0.045,0.939
29169,0.208,0.041,0.943
29189,0.204,0.049,0.936
29213,0.211,0.049,0.93
29234,0.205,0.046,0.936
29255,0.206,0.049,0.938
29279,0.209,0.048,0.936
29299,0.21,0.049,0.937
29320,0.205,0.052,0.95
29345,0.205,0.049,0.943
29365,0.211,0.039,0.934
29386,0.212,0.048,0.928
29410,0.194,0.046,0.943
29431,0.205,0.051,0.942
29451,0.209,0.04,0.942
29476,0.205,0.047,0.929
29496,0.215,0.042,0.934
29517,0.205,0.049,0.935
29541,0.21,0.042,0.935
29562,0.206,0.04,0.935
29582,0.204,0.047,0.935
29607,0.204,0.045,0.933
29627,0.206,0.042,0.936
29648,0.214,0.044,0.94
29672,0.207,0.046,0.929
29693,0.208,0.052,0.928
29713,0.223,0.048,0.921
29738,0.205,0.05,0.932
29758,0.217,0.047,0.944
29779,0.207,0.053,0.928
29803,0.207,0.051,0.93
29824,0.21,0.044,0.933
29844,0.204,0.054,0.939
29869,0.218,0.04,0.923
29889,0.199,0.051,0.936
29910,0.212,0.04,0.94
29935,0.196,0.055,0.936
29955,0.21,0.046,0.93
29976,0.207,0.05,0.944
30000,0.203,0.048,0.935
30020,0.201,0.047,0.939
30041,0.208,0.05,0.933
30065,0.208,0.045,0.929
30086,0.212,0.043,0.924
30107,0.201,0.046,0.935
30131,0.204,0.05,0.936
30151,0.211,0.043,0.942
30172,0.209,0.053,0.923
30196,0.208,0.047,0.935
30217,0.21,0.046,0.932
30238,0.206,0.043,0.938
30262,0.209,0.043,0.928
30282,0.204,0.052,0.937
30303,0.214,0.048,0.936
30327,0.215,0.046,0.938
30348,0.203,0.046,0.935
30369,0.204,0.053,0.936
30393,0.212,0.048,0.933
30414,0.204,0.048,0.942
30434,0.209,0.049,0.933
30459,0.209,0.045,0.935
30479,0.205,0.042,0.935
30500,0.207,0.047,0.932
30524,0.214,0.047,0.927
30545,0.208,0.044,0.938
30565,0.212,0.044,0.927
30590,0.206,0.051,0.942
30610,0.204,0.042,0.936
30631,0.201,0.045,0.933
30656,0.196,0.055,0.937
30676,0.224,0.047,0.938
30696,0.201,0.049,0.934
30721,0.21,0.05,0.938
30741,0.202,0.053,0.948
30762,0.215,0.047,0.945
30786,0.208,0.039,0.923
30807,0.211,0.054,0.912
30827,0.189,0.054,0.932
30852,0.208,0.042,0.931
30873,0.209,0.05,0.928
30893,0.211,0.04,0.932
30917,0.202,0.052,0.933
30938,0.21,0.053,0.933
30958,0.212,0.046,0.922
30983,0.208,0.048,0.936
31003,0.204,0.05,0.927
31024,0.214,0.04,0.937
31048,0.202,0.057,0.926
31069,0.21,0.043,0.932
31090,0.207,0.042,0.929
31114,0.211,0.057,0.925
31134,0.208,0.045,0.934
31155,0.206,0.054,0.904
31179,0.201,0.049,0.937
31200,0.21,0.049,0.935
31220,0.209,0.046,0.939
31245,0.205,0.044,0.933
31266,0.21,0.046,0.941
31286,0.21,0.044,0.921
31311,0.214,0.049,0.937
31331,0.204,0.052,0.94
31352,0.209,0.05,0.934
31376,0.204,0.053,0.931
31397,0.187,0.059,0.954
31421,0.219,0.038,0.943
31442,0.197,0.051,0.93
31462,0.216,0.046,0.93
31487,0.205,0.047,0.93
31507,0.209,0.049,0.935
31528,0.207,0.038,0.931
31553,0.206,0.048,0.932
31573,0.211,0.044,0.938
31593,0.205,0.046,0.944
31618,0.209,0.045,0.937
31638,0.215,0.047,0.937
31659,0.208,0.053,0.935
31683,0.205,0.045,0.935
31704,0.203,0.049,0.935
31724,0.204,0.046,0.938
31749,0.211,0.048,0.93
31770,0.202,0.048,0.938
31790,0.201,0.047,0.941
31814,0.204,0.05,0.932
31835,0.203,0.04,0.942
31855,0.21,0.045,0.943
31880,0.21,0.052,0.921
31900,0.204,0.052,0.94
31921,0.208,0.045,0.932
31945,0.211,0.05,0.932
31966,0.208,0.051,0.929
31987,0.205,0.047,0.942
32011,0.21,0.044,0.926
32031,0.204,0.048,0.93
32052,0.209,0.048,0.938
32076,0.203,0.046,0.945
32097,0.209,0.042,0.935
32118,0.207,0.042,0.944
32142,0.21,0.046,0.93
32162,0.21,0.055,0.946
32183,0.211,0.045,0.932
32207,0.203,0.048,0.935
32228,0.208,0.047,0.938
32248,0.208,0.05,0.935
32273,0.209,0.047,0.943
32294,0.21,0.042,0.928
32314,0.208,0.049,0.944
32339,0.205,0.043,0.94
32359,0.207,0.044,0.946
32380,0.199,0.046,0.939
32404,0.204,0.052,0.938
32425,0.208,0.051,0.928
32445,0.206,0.042,0.932
32470,0.212,0.038,0.935
32490,0.21,0.042,0.938
32511,0.209,0.044,0.925
32535,0.213,0.047,0.938
32556,0.209,0.04,0.931
32576,0.209,0.046,0.933
32601,0.206,0.047,0.941
32621,0.207,0.043,0.936
32642,0.202,0.05,0.935
32666,0.211,0.044,0.932
32687,0.207,0.053,0.933
32707,0.204,0.046,0.922
32732,0.206,0.043,0.944
32753,0.209,0.051,0.936
32773,0.211,0.044,0.93
32797,0.208,0.05,0.932
32818,0.209,0.046,0.931
32839,0.21,0.043,0.938
32863,0.207,0.046,0.929
32884,0.204,0.047,0.937
32905,0.21,0.051,0.938
32928,0.199,0.043,0.938
32949,0.205,0.048,0.94
32969,0.209,0.044,0.937
32994,0.204,0.051,0.932
33015,0.201,0.052,0.93
33035,0.208,0.045,0.938
33060,0.208,0.047,0.935
33080,0.21,0.05,0.925
33101,0.206,0.039,0.931
33125,0.208,0.048,0.937
33145,0.203,0.044,0.933
33166,0.197,0.047,0.944
33190,0.207,0.046,0.932
33211,0.199,0.048,0.932
33231,0.212,0.042,0.934
33256,0.206,0.046,0.934
33277,0.2,0.044,0.94
33297,0.21,0.043,0.941
33322,0.203,0.042,0.933
33342,0.211,0.048,0.929
33363,0.201,0.055,0.925
33387,0.202,0.046,0.929
33408,0.215,0.046,0.94
33428,0.206,0.053,0.934
33453,0.203,0.048,0.942
33474,0.198,0.043,0.949
33494,0.207,0.045,0.936
33519,0.205,0.052,0.944
33539,0.209,0.05,0.936
33559,0.207,0.048,0.948
33584,0.206,0.053,0.923
33604,0.206,0.045,0.938
33625,0.201,0.044,0.933
33649,0.209,0.048,0.939
33670,0.206,0.046,0.944
33690,0.207,0.054,0.933
33715,0.215,0.053,0.937
33735,0.204,0.043,0.938
33756,0.208,0.043,0.931
33780,0.207,0.044,0.938
33801,0.204,0.048,0.941
33821,0.21,0.048,0.93
33846,0.218,0.044,0.926
33866,0.209,0.048,0.929
33887,0.21,0.048,0.929
33911,0.205,0.049,0.942
33932,0.2,0.048,0.949
33952,0.2,0.049,0.933
33977,0.212,0.05,0.935
33997,0.2,0.045,0.929
34018,0.212,0.049,0.932
34042,0.207,0.047,0.936
34063,0.205,0.05,0.94
34083,0.202,0.054,0.94
34108,0.207,0.05,0.934
34128,0.215,0.041,0.932
34149,0.205,0.045,0.928
34174,0.209,0.045,0.923
34194,0.208,0.043,0.929
34214,0.206,0.05,0.941
34239,0.213,0.044,0.935
34260,0.199,0.048,0.938
34280,0.206,0.054,0.941
34305,0.199,0.049,0.936
34325,0.206,0.043,0.942
34346,0.205,0.04,0.93
34370,0.198,0.042,0.938
34391,0.205,0.049,0.942
34411,0.208,0.049,0.934
34436,0.211,0.044,0.943
34456,0.202,0.046,0.932
34477,0.203,0.044,0.932
34501,0.204,0.047,0.936
34522,0.209,0.052,0.931
34542,0.213,0.05,0.929
34567,0.206,0.047,0.928
34587,0.208,0.041,0.935
34608,0.204,0.045,0.933
34632,0.208,0.044,0.937
34653,0.206,0.046,0.94
34673,0.206,0.044,0.939
34698,0.208,0.044,0.928
34718,0.216,0.04,0.939
34743,0.203,0.05,0.937
34763,0.211,0.038,0.933
34784,0.211,0.05,0.937
34808,0.208,0.043,0.933
34829,0.214,0.047,0.94
34849,0.209,0.046,0.933
34874,0.209,0.041,0.943
34895,0.203,0.046,0.944
34915,0.205,0.05,0.942
34939,0.205,0.047,0.931
34960,0.205,0.044,0.938
34980,0.204,0.05,0.936
35005,0.206,0.046,0.927
35026,0.2,0.05,0.932
35046,0.217,0.042,0.93
35071,0.209,0.052,0.941
35091,0.199,0.052,0.934
35112,0.206,0.042,0.939
35136,0.206,0.056,0.948
35157,0.204,0.05,0.933
35177,0.224,0.037,0.913
35201,0.203,0.045,0.931
35222,0.213,0.041,0.934
35243,0.206,0.044,0.93
35267,0.205,0.043,0.936
35288,0.206,0.047,0.929
35308,0.204,0.049,0.938
35333,0.203,0.045,0.927
35353,0.207,0.046,0.934
35374,0.211,0.037,0.937
35398,0.203,0.047,0.934
35419,0.21,0.052,0.928
35439,0.209,0.046,0.935
35464,0.207,0.048,0.935
35484,0.21,0.043,0.931
35505,0.198,0.045,0.943
35529,0.209,0.042,0.933
35550,0.214,0.05,0.932
35570,0.21,0.045,0.934
35595,0.203,0.048,0.938
35615,0.212,0.044,0.947
35636,0.199,0.042,0.933
35660,0.213,0.049,0.941
35681,0.211,0.043,0.935
35701,0.211,0.045,0.947
35726,0.21,0.052,0.929
35746,0.204,0.054,0.935
35767,0.204,0.047,0.934
35791,0.214,0.051,0.933
35812,0.203,0.045,0.933
35832,0.21,0.043,0.932
35857,0.203,0.051,0.937
35877,0.212,0.045,0.929
35898,0.206,0.052,0.938
35922,0.206,0.048,0.934
35943,0.209,0.043,0.937
35963,0.199,0.049,0.936
35988,0.205,0.042,0.94
36009,0.207,0.043,0.936
36029,0.208,0.047,0.926
36054,0.217,0.042,0.926
36074,0.207,0.038,0.954
36094,0.211,0.045,0.932
36119,0.199,0.057,0.92
36139,0.211,0.038,0.933
36160,0.219,0.044,0.921
36184,0.19,0.054,0.939
36205,0.219,0.037,0.936
36226,0.214,0.041,0.933
36250,0.207,0.042,0.945
36271,0.207,0.048,0.933
36291,0.22,0.036,0.951
36316,0.2,0.048,0.935
36336,0.203,0.045,0.932
36357,0.213,0.045,0.935
36381,0.203,0.05,0.931
36402,0.215,0.045,0.92
36423,0.206,0.041,0.95
36447,0.201,0.047,0.938
36467,0.202,0.045,0.94
36488,0.202,0.044,0.939
36512,0.208,0.045,0.938
36533,0.201,0.05,0.937
36553,0.218,0.04,0.931
36578,0.208,0.048,0.932
36598,0.212,0.041,0.932
36619,0.209,0.043,0.93
36643,0.206,0.041,0.94
36664,0.213,0.041,0.941
36684,0.201,0.048,0.945
36709,0.199,0.045,0.941
36729,0.205,0.044,0.932
36750,0.201,0.042,0.935
36774,0.204,0.043,0.941
36795,0.203,0.038,0.947
36815,0.209,0.037,0.931
36840,0.202,0.047,0.93
36860,0.207,0.044,0.941
36881,0.209,0.037,0.932
36906,0.206,0.051,0.927
36926,0.204,0.049,0.925
36946,0.212,0.045,0.937
36971,0.199,0.051,0.927
36991,0.221,0.042,0.936
37012,0.204,0.05,0.936
37037,0.21,0.05,0.927
37057,0.202,0.05,0.941
37077,0.214,0.045,0.936
37102,0.204,0.051,0.934
37123,0.21,0.045,0.933
37143,0.195,0.051,0.942
37167,0.205,0.042,0.934
37188,0.211,0.042,0.937
37209,0.208,0.05,0.94
37233,0.203,0.05,0.928
37254,0.216,0.042,0.939
37274,0.203,0.048,0.94
37299,0.212,0.044,0.939
37319,0.212,0.044,0.94
37340,0.212,0.048,0.94
37364,0.212,0.048,0.93
37385,0.206,0.042,0.925
37406,0.209,0.044,0.948
37430,0.207,0.039,0.939
37450,0.216,0.04,0.928
37471,0.21,0.046,0.936
37495,0.195,0.013,0.883
37516,0.233,0.026,0.936
37536,0.185,0.058,0.918
37561,0.207,0.037,0.924
37581,0.194,0.047,0.913
37606,-0.244,-0.232,1.353
37626,0.031,0.168,1.081
37651,0.133,0.137,1.07
37671,0.064,0.071,0.843
37692,0.505,0.037,0.927
37717,0.041,0.175,1.014
37737,0.189,-0.006,1.045
37761,0.185,0.057,0.94
37782,0.179,0.072,0.916
37803,0.188,0.073,0.892
37827,0.229,0.046,0.941
37847,0.286,-0.031,0.979
37868,0.032,0.152,0.928
37893,0.211,0.035,0.939
37913,0.134,0.083,0.938
37938,0.21,0.022,0.951
37958,0.142,0.063,0.943
37979,0.182,0.035,0.959
38003,0.155,0.078,0.931
38024,0.268,0.146,1.033
38048,-0.044,-0.07,1.011
38069,0.069,0.198,1.037
38093,0.019,-0.012,0.934
38114,0.183,0.059,0.929
38138,0.103,-0.002,0.887
38159,0.25,0.034,0.882
38179,0.197,-0.025,0.89
38204,0.283,0.218,0.92
38224,0.267,0.004,0.841
38249,0.184,-0.007,0.995
38270,0.156,0.238,0.939
38290,0.246,0.107,0.882
38314,0.114,-0.05,0.625
38339,0.237,-0.093,0.787
38359,0.217,0.053,0.948
38380,0.202,0.06,0.907
38405,0.183,0.058,0.925
38425,0.224,0.037,0.942
38445,0.204,0.063,0.919
38470,0.188,0.052,0.948
38491,0.199,0.053,0.93
38511,0.197,0.053,0.935
38536,0.216,0.04,0.924
38556,0.202,0.052,0.932
38577,0.208,0.043,0.945
38601,0.215,0.043,0.924
38622,0.219,0.032,0.952
38642,0.206,0.053,0.93
38667,0.215,0.047,0.928
38687,0.225,0.031,0.963
38708,0.21,0.052,0.938
38732,0.232,0.043,0.911
38753,0.187,0.073,0.91
38773,0.209,0.047,0.927
38798,0.225,0.04,0.932
38818,0.19,0.057,0.932
38839,0.217,0.039,0.94
38863,0.194,0.063,0.938
38884,0.204,0.043,0.935
38904,0.205,0.041,0.941
38929,0.206,0.051,0.929
38949,0.206,0.044,0.937
38970,0.213,0.039,0.931
38994,0.198,0.054,0.943
39015,0.22,0.042,0.938
39036,0.2,0.053,0.933
39060,0.192,0.038,0.971
39080,0.203,0.048,0.931
39101,0.206,0.049,0.939
39125,0.218,0.044,0.938
39146,0.211,0.05,0.92
39166,0.211,0.052,0.933
39191,0.216,0.044,0.935
39211,0.209,0.05,0.938
39232,0.207,0.049,0.935
39256,0.21,0.046,0.935
39277,0.209,0.041,0.943
39297,0.21,0.041,0.948
39322,0.204,0.045,0.938
39342,0.213,0.048,0.934
39363,0.212,0.051,0.928
39388,0.213,0.043,0.937
39408,0.209,0.047,0.947
39428,0.208,0.049,0.933
39453,0.21,0.043,0.934
39474,0.213,0.046,0.934
39494,0.22,0.042,0.934
39519,0.203,0.051,0.937
39539,0.216,0.042,0.931
39560,0.212,0.048,0.936
39584,0.215,0.044,0.937
39605,0.212,0.048,0.929
39625,0.211,0.045,0.93
39649,0.212,0.043,0.937
39671,0.209,0.044,0.942
39691,0.212,0.047,0.937
39715,0.211,0.045,0.944
39736,0.216,0.045,0.938
39756,0.207,0.051,0.932
39781,0.207,0.041,0.94
39801,0.221,0.047,0.932
39822,0.217,0.042,0.935
39846,0.207,0.045,0.935
39867,0.208,0.04,0.941
39887,0.212,0.041,0.939
39912,0.209,0.042,0.934
39932,0.205,0.045,0.933
39953,0.232,0.029,0.948
39977,0.217,0.062,0.915
39998,0.22,0.032,0.968
40019,0.192,0.085,0.984
40043,0.257,0.009,0.949
40063,0.245,0.003,1.027
40084,0.223,0.041,0.938
40108,0.208,0.044,0.926
40129,0.217,0.04,0.934
40149,0.221,0.043,0.933
40174,0.22,0.044,0.931
40194,0.22,0.044,0.922
40215,0.224,0.042,0.93
40240,0.222,0.038,0.933
40260,0.22,0.045,0.93
40280,0.227,0.042,0.928
40305,0.219,0.047,0.939
40325,0.223,0.039,0.927
40346,0.218,0.043,0.936
40371,0.23,0.043,0.932
40391,0.219,0.043,0.924
40411,0.215,0.038,0.934
40436,0.215,0.04,0.934
40457,0.219,0.045,0.936
40477,0.225,0.042,0.935
40502,0.222,0.048,0.931
40523,0.22,0.043,0.933
40543,0.217,0.042,0.931
40567,0.219,0.047,0.933
40588,0.226,0.044,0.932
40608,0.22,0.043,0.928
40633,0.221,0.036,0.926
40653,0.218,0.045,0.929
40674,0.217,0.045,0.938
40698,0.226,0.041,0.921
40719,0.222,0.042,0.932
40740,0.222,0.038,0.936
40764,0.222,0.047,0.946
40785,0.218,0.048,0.928
40805,0.218,0.045,0.938
40829,0.212,0.044,0.94
40850,0.221,0.046,0.933
40870,0.221,0.051,0.925
40895,0.218,0.048,0.923
40915,0.222,0.046,0.923
40936,0.218,0.045,0.936
40960,0.221,0.052,0.941
40981,0.225,0.045,0.928
41005,0.224,0.042,0.932
41026,0.22,0.044,0.942
41046,0.22,0.037,0.945
41071,0.227,0.036,0.95
41091,0.22,0.04,0.929
41112,0.222,0.04,0.927
41137,0.228,0.042,0.939
41157,0.228,0.046,0.932
41177,0.22,0.048,0.933
41202,0.222,0.038,0.935
41222,0.219,0.046,0.93
41243,0.222,0.043,0.938
41267,0.219,0.038,0.941
41288,0.226,0.04,0.928
41308,0.234,0.033,0.938
41333,0.201,0.061,0.92
41354,0.215,0.026,0.925
41374,0.226,0.039,0.933
41398,0.216,0.037,0.933
41419,0.227,0.039,0.924
41439,0.223,0.045,0.914
41464,0.21,0.041,0.937
41484,0.228,0.04,0.943
41505,0.211,0.045,0.93
41529,0.207,0.042,0.924
41550,0.213,0.043,0.938
41571,0.208,0.049,0.935
41595,0.214,0.042,0.931
41616,0.209,0.051,0.938
41636,0.212,0.047,0.933
41661,0.208,0.039,0.935
41681,0.217,0.042,0.935
41702,0.215,0.037,0.926
41726,0.208,0.045,0.94
41747,0.22,0.042,0.944
41768,0.213,0.04,0.932
41792,0.218,0.041,0.932
41812,0.21,0.042,0.934
41833,0.217,0.042,0.945
41857,0.214,0.038,0.93
41878,0.219,0.047,0.944
41898,0.218,0.044,0.927
41923,0.213,0.038,0.941
41943,0.219,0.042,0.92
41964,0.215,0.039,0.931
41988,0.212,0.046,0.936
42009,0.219,0.044,0.909
42029,0.22,0.038,0.934
42054,0.212,0.044,0.931
42074,0.219,0.037,0.928
42095,0.215,0.038,0.93
42120,0.211,0.044,0.94
42140,0.216,0.044,0.939
42160,0.21,0.042,0.935
42185,0.214,0.042,0.934
42205,0.215,0.042,0.936
42226,0.211,0.044,0.935
42250,0.219,0.04,0.935
42271,0.212,0.043,0.922
42291,0.217,0.044,0.932
42316,0.215,0.045,0.928
42337,0.208,0.039,0.931
42357,0.216,0.042,0.927
42381,0.216,0.041,0.926
42402,0.219,0.042,0.93
42423,0.216,0.048,0.935
42447,0.22,0.05,0.933
42467,0.212,0.042,0.936
42488,0.218,0.038,0.932
42512,0.214,0.044,0.929
42533,0.215,0.046,0.933
42554,0.216,0.042,0.922
42578,0.209,0.041,0.933
42599,0.217,0.041,0.93
42619,0.212,0.046,0.942
42644,0.215,0.044,0.932
42664,0.205,0.039,0.935
42685,0.213,0.044,0.93
42709,0.218,0.046,0.934
42730,0.212,0.043,0.931
42750,0.217,0.044,0.924
42775,0.214,0.04,0.931
42804,0.212,0.046,0.928
42828,0.21,0.037,0.919
42857,0.216,0.039,0.933
42886,0.214,0.046,0.931
42914,0.211,0.044,0.933
42943,0.219,0.045,0.929
42972,0.217,0.04,0.93
43000,0.209,0.043,0.941
43029,0.21,0.043,0.926
43061,0.212,0.039,0.932
43090,0.221,0.045,0.928
43119,0.221,0.042,0.937
43147,0.217,0.046,0.932
43176,0.213,0.046,0.938
43206,0.22,0.04,0.936
43233,0.216,0.039,0.934
43258,0.216,0.048,0.94
43278,0.225,0.045,0.926
43299,0.216,0.042,0.935
43328,0.208,0.04,0.935
43356,0.217,0.039,0.932
43389,0.214,0.041,0.932
43418,0.215,0.041,0.935
43446,0.217,0.045,0.931
43475,0.216,0.047,0.927
43504,0.213,0.044,0.936
43532,0.215,0.045,0.93
43561,0.217,0.045,0.935
43590,0.21,0.043,0.931
43619,0.213,0.044,0.93
43647,0.218,0.043,0.931
43676,0.202,0.038,0.929
43705,0.211,0.042,0.935
43733,0.212,0.041,0.936
43762,0.216,0.047,0.932
43787,0.219,0.041,0.929
43815,0.214,0.041,0.929
43844,0.212,0.039,0.935
43872,0.215,0.04,0.938
43901,0.213,0.047,0.94
43930,0.219,0.042,0.936
43958,0.222,0.041,0.933
43983,0.215,0.043,0.931
44012,0.22,0.041,0.938
44037,0.213,0.04,0.939
44057,0.21,0.04,0.94
44077,0.215,0.043,0.932
44102,0.213,0.047,0.934
44122,0.219,0.042,0.932
44143,0.212,0.042,0.934
44167,0.214,0.04,0.934
44188,0.212,0.039,0.924
44208,0.216,0.044,0.934
44233,0.217,0.047,0.935
44257,0.217,0.045,0.936
44287,0.219,0.042,0.93
44315,0.214,0.04,0.937
44343,0.211,0.041,0.945
44372,0.218,0.041,0.939
44401,0.214,0.042,0.937
44429,0.216,0.039,0.938
44458,0.219,0.049,0.934
44483,0.214,0.045,0.936
44511,0.207,0.043,0.936
44540,0.213,0.046,0.936
44569,0.213,0.042,0.936
44597,0.208,0.046,0.924
44626,0.217,0.039,0.939
44655,0.214,0.045,0.929
44683,0.211,0.047,0.919
44712,0.22,0.043,0.938
44732,0.208,0.044,0.931
44757,0.233,0.042,0.916
44778,0.218,0.04,0.934
44798,0.211,0.038,0.93
44823,0.211,0.055,0.938
44843,0.217,0.049,0.941
44863,0.21,0.044,0.933
44892,0.213,0.038,0.928
44925,0.216,0.042,0.936
44950,0.215,0.045,0.938
44978,0.219,0.039,0.95
45007,0.215,0.047,0.931
45036,0.217,0.039,0.919
45064,0.218,0.043,0.935
45093,0.212,0.047,0.935
45122,0.214,0.043,0.935
45146,0.219,0.039,0.933
45175,0.209,0.041,0.946
45204,0.224,0.036,0.938
45232,0.215,0.044,0.93
45253,0.265,0.025,0.93
45277,0.226,0.04,0.934
45298,0.24,-0.005,0.96
45326,0.185,0.069,0.922
45356,0.216,0.061,0.908
45384,0.175,0.078,0.952
45412,0.217,0.044,0.948
45441,0.197,0.05,0.94
45466,0.225,0.03,0.93
45494,0.228,0.038,0.92
45523,0.212,0.046,0.928
45552,0.211,0.046,0.931
45580,0.203,0.054,0.951
45609,0.2,0.055,0.936
45638,0.21,0.042,0.916
45667,0.211,0.044,0.948
45695,0.212,0.048,0.916
45724,0.206,0.048,0.93
45756,0.207,0.039,0.938
45785,0.206,0.041,0.932
45806,0.207,0.041,0.937
45826,0.221,0.042,0.983
45850,0.208,0.043,0.907
45871,0.209,0.046,0.936
45900,0.205,0.035,0.911
45929,0.206,0.048,0.942
45957,0.211,0.036,0.928
45990,0.211,0.048,0.936
46019,0.21,0.041,0.938
46047,0.223,0.039,0.9
46076,0.213,0.047,0.94
46101,0.205,0.042,0.929
46129,0.207,0.046,0.943
46158,0.202,0.04,0.938
46187,0.211,0.037,0.936
46215,0.207,0.045,0.937
46244,0.212,0.04,0.93
46273,0.208,0.041,0.925
46297,0.207,0.041,0.945
46326,0.203,0.047,0.938
46355,0.207,0.039,0.939
46383,0.205,0.044,0.935
46412,0.215,0.042,0.931
46440,0.213,0.039,0.924
46461,0.207,0.043,0.935
46481,0.21,0.042,0.927
46506,0.214,0.043,0.94
46526,0.209,0.04,0.93
46547,0.21,0.042,0.938
46572,0.206,0.046,0.934
46592,0.205,0.039,0.934
46612,0.207,0.041,0.94
46637,0.208,0.046,0.933
46658,0.208,0.046,0.924
46678,0.213,0.045,0.936
46702,0.203,0.04,0.938
46723,0.207,0.044,0.936
46743,0.205,0.045,0.938
46768,0.211,0.041,0.941
46789,0.201,0.041,0.938
46809,0.207,0.046,0.947
46834,0.206,0.039,0.942
46854,0.206,0.04,0.93
46875,0.196,0.048,0.932
46899,0.202,0.04,0.938
46920,0.211,0.042,0.937
46940,0.216,0.051,0.937
46965,0.211,0.042,0.935
46985,0.208,0.043,0.94
47010,0.208,0.049,0.932
47030,0.199,0.029,0.933
47051,0.207,0.036,0.937
47075,0.205,0.051,0.938
47096,0.2,0.042,0.941
47116,0.212,0.033,0.931
47141,0.217,0.045,0.924
47161,0.207,0.051,0.93
47182,0.209,0.041,0.931
47206,0.208,0.042,0.948
47227,0.203,0.044,0.936
47247,0.2,0.037,0.949
47273,0.206,0.048,0.945
47292,0.215,0.045,0.931
47313,0.22,0.043,0.926
47337,0.202,0.036,0.927
47358,0.203,0.052,0.932
47378,0.205,0.042,0.929
47403,0.206,0.033,0.934
47423,0.206,0.043,0.941
47444,0.208,0.046,0.93
47469,0.211,0.042,0.946
47489,0.205,0.039,0.944
47509,0.199,0.048,0.936
47534,0.213,0.039,0.936
47555,0.214,0.041,0.938
47575,0.207,0.048,0.937
47600,0.206,0.044,0.943
47620,0.207,0.038,0.939
47640,0.213,0.045,0.934
47665,0.207,0.039,0.923
47686,0.205,0.045,0.936
47706,0.207,0.041,0.938
47730,0.208,0.044,0.942
47751,0.211,0.045,0.922
47772,0.211,0.048,0.931
47796,0.199,0.043,0.935
47816,0.2,0.056,0.936
47837,0.179,0.05,0.935
47862,0.206,0.042,0.937
47882,0.209,0.044,0.936
47903,0.203,0.04,0.933
47927,0.198,0.044,0.933
47948,0.208,0.043,0.936
47968,0.207,0.034,0.939
47993,0.207,0.034,0.94
48013,0.208,0.043,0.935
48034,0.215,0.043,0.927
48058,0.209,0.047,0.935
48079,0.207,0.043,0.937
48099,0.226,0.027,0.936
48124,0.206,0.039,0.938
48144,0.21,0.036,0.931
48165,0.207,0.043,0.938
48189,0.206,0.043,0.934
48210,0.214,0.031,0.953
48230,0.208,0.041,0.941
48255,0.209,0.04,0.938
48275,0.212,0.035,0.939
48296,0.21,0.043,0.934
48321,0.21,0.045,0.941
48341,0.207,0.041,0.936
48361,0.213,0.042,0.928
48386,0.208,0.038,0.929
48406,0.21,0.031,0.933
48427,0.21,0.041,0.936
48452,0.214,0.045,0.933
48473,0.213,0.044,0.938
48492,0.213,0.04,0.932
48517,0.21,0.044,0.941
48538,0.214,0.038,0.936
48558,0.205,0.039,0.932
48582,0.208,0.044,0.933
48603,0.207,0.036,0.929
48624,0.211,0.038,0.936
48648,0.21,0.039,0.937
48669,0.213,0.042,0.933
48689,0.212,0.036,0.94
48714,0.215,0.046,0.936
48735,0.209,0.059,0.934
48754,0.211,0.037,0.937
48779,0.198,0.044,0.941
48800,0.212,0.044,0.935
48821,0.211,0.04,0.943
48845,0.207,0.045,0.93
48866,0.209,0.039,0.927
48886,0.209,0.044,0.937
48910,0.212,0.049,0.937
48931,0.202,0.041,0.934
48951,0.21,0.042,0.937
48976,0.206,0.042,0.935
48996,0.204,0.045,0.946
49017,0.215,0.044,0.936
49041,0.212,0.043,0.94
49062,0.208,0.035,0.935
49082,0.215,0.042,0.941
49111,0.209,0.039,0.928
49140,0.207,0.036,0.937
49168,0.204,0.042,0.925
49197,0.211,0.045,0.94
49225,0.21,0.042,0.927
49255,0.212,0.041,0.937
49279,0.209,0.044,0.935
49307,0.202,0.042,0.921
49336,0.213,0.046,0.929
49365,0.207,0.046,0.941
49394,0.207,0.042,0.935
49422,0.206,0.043,0.93
49451,0.212,0.042,0.938
49479,0.222,0.038,0.929
49508,0.215,0.042,0.928
49537,0.208,0.042,0.942
49565,0.207,0.047,0.936
49594,0.208,0.04,0.937
49623,0.207,0.043,0.945
49651,0.212,0.044,0.93
49680,0.211,0.047,0.938
49713,0.176,0.058,0.942
49742,0.202,0.042,0.945
49762,0.205,0.043,0.932
49783,0.212,0.038,0.932
49807,0.208,0.033,0.954
49828,0.212,0.041,0.931
49848,0.213,0.044,0.929
49873,0.212,0.036,0.938
49901,0.225,0.025,0.938
49930,0.218,0.029,0.939
49959,0.207,0.05,0.92
49988,0.215,0.04,0.938
50016,0.218,0.037,0.945
50045,0.228,0.025,0.945
50077,0.214,0.042,0.929
50106,0.209,0.044,0.932
50135,0.22,0.044,0.941
50163,0.212,0.045,0.936
50188,0.231,0.037,0.934
50217,0.214,0.039,0.918
50245,0.207,0.051,0.914
50274,0.219,0.05,0.931
50303,0.218,0.03,0.937
50331,0.207,0.044,0.922
50360,0.249,0.018,0.912
50385,0.207,0.047,0.943
50413,0.21,0.051,0.922
50442,0.21,0.049,0.926
50471,0.219,0.039,0.937
50499,0.218,0.04,0.943
50528,0.214,0.045,0.935
50557,0.218,0.047,0.945
50582,0.207,0.047,0.926
50610,0.213,0.04,0.932
50639,0.217,0.04,0.928
50668,0.214,0.036,0.94
50696,0.211,0.035,0.95
50725,0.212,0.047,0.931
50754,0.214,0.049,0.94
50782,0.205,0.049,0.918
50803,0.216,0.044,0.924
50823,0.2,0.049,0.93
50847,0.213,0.045,0.928
50868,0.208,0.045,0.935
50889,0.207,0.045,0.94
50913,0.211,0.042,0.929
50934,0.216,0.039,0.942
50954,0.214,0.041,0.928
50978,0.214,0.034,0.942
50999,0.214,0.044,0.949
51020,0.213,0.042,0.934
51044,0.211,0.041,0.93
51064,0.21,0.046,0.934
51085,0.216,0.039,0.942
51110,0.211,0.043,0.935
51130,0.21,0.041,0.932
51151,0.211,0.042,0.919
51175,0.207,0.042,0.927
51196,0.207,0.047,0.942
51216,0.218,0.048,0.941
51241,0.218,0.041,0.932
51261,0.211,0.039,0.935
51290,0.205,0.043,0.935
51318,0.217,0.04,0.93
51343,0.21,0.043,0.932
51372,0.203,0.049,0.936
51400,0.217,0.039,0.927
51429,0.212,0.037,0.931
51458,0.206,0.043,0.932
51486,0.21,0.046,0.923
51515,0.209,0.046,0.928
51540,0.206,0.052,0.927
51569,0.209,0.038,0.933
51597,0.211,0.042,0.938
51626,0.207,0.052,0.937
51646,0.208,0.038,0.935
51671,0.211,0.039,0.94
51691,0.208,0.041,0.948
51712,0.208,0.039,0.929
51737,0.212,0.047,0.932
51757,0.21,0.04,0.934
51777,0.21,0.045,0.938
51802,0.213,0.045,0.938
51822,0.209,0.04,0.935
51843,0.209,0.038,0.938
51868,0.21,0.041,0.933
51888,0.206,0.042,0.943
51908,0.205,0.045,0.941
51933,0.211,0.05,0.932
51954,0.205,0.049,0.949
51974,0.214,0.037,0.935
51998,0.209,0.036,0.938
52027,0.207,0.048,0.928
52052,0.212,0.041,0.941
52080,0.214,0.043,0.937
52109,0.214,0.044,0.936
52138,0.21,0.039,0.932
52166,0.213,0.045,0.93
52195,0.209,0.038,0.933
52224,0.216,0.043,0.926
52244,0.214,0.043,0.94
52265,0.211,0.046,0.936
52289,0.206,0.042,0.936
52310,0.211,0.042,0.935
52330,0.211,0.04,0.939
52355,0.216,0.041,0.93
52375,0.214,0.036,0.939
52396,0.212,0.04,0.943
52421,0.211,0.047,0.929
52441,0.21,0.046,0.93
52461,0.213,0.044,0.937
52486,0.211,0.043,0.932
52506,0.211,0.039,0.936
52527,0.207,0.044,0.933
52552,0.206,0.039,0.93
52572,0.213,0.044,0.94
52592,0.208,0.049,0.943
52617,0.215,0.041,0.919
52638,0.215,0.039,0.936
52658,0.21,0.036,0.935
52683,0.213,0.048,0.94
52703,0.208,0.037,0.94
52723,0.219,0.035,0.928
52748,0.211,0.043,0.933
52769,0.218,0.045,0.927
52789,0.231,0.09,0.924
52813,0.216,0.018,0.934
52834,0.207,0.028,0.945
52855,0.209,0.031,0.943
52879,0.198,0.042,0.936
52899,0.201,0.027,0.944
52920,0.177,0.025,0.953
52944,0.201,0.04,0.95
52966,0.121,0.017,0.916
52986,0.212,0.037,0.934
53010,0.215,0.042,0.931
53030,0.219,0.039,0.933
53051,0.208,0.041,0.928
53075,0.205,0.035,0.945
53096,0.202,0.044,0.941
53116,0.205,0.043,0.932
53141,0.216,0.047,0.953
53162,0.211,0.039,0.89
53182,0.214,0.037,0.94
53207,0.212,0.045,0.935
53227,0.214,0.049,0.924
53248,0.21,0.038,0.926
53272,0.22,0.04,0.936
53293,0.213,0.038,0.927
53313,0.21,0.053,0.938
53338,0.209,0.056,0.929
53358,0.209,0.044,0.946
53379,0.197,0.035,0.936
53404,0.211,0.042,0.934
53424,0.209,0.042,0.928
53444,0.215,0.038,0.944
53469,0.212,0.043,0.932
53489,0.21,0.045,0.942
53510,0.204,0.047,0.933
53535,0.21,0.042,0.943
53555,0.199,0.043,0.938
53575,0.205,0.042,0.94
53601,0.214,0.039,0.929
53620,0.227,0.04,0.921
53641,0.212,0.047,0.937
53666,0.205,0.037,0.931
53686,0.207,0.036,0.93
53706,0.207,0.044,0.942
53731,0.207,0.04,0.931
53752,0.204,0.045,0.936
53772,0.214,0.044,0.93
53796,0.208,0.044,0.942
53817,0.196,0.041,0.93
53837,0.202,0.044,0.955
53862,0.204,0.043,0.936
53883,0.21,0.041,0.946
53903,0.213,0.048,0.935
53928,0.211,0.046,0.937
53948,0.207,0.04,0.934
53969,0.208,0.042,0.928
53993,0.207,0.042,0.935
54022,0.21,0.038,0.944
54050,0.214,0.042,0.943
54079,0.212,0.045,0.933
54108,0.212,0.042,0.93
54137,0.213,0.043,0.925
54169,0.211,0.04,0.925
54198,0.202,0.038,0.94
54226,0.203,0.044,0.936
54247,0.209,0.042,0.928
54267,0.204,0.04,0.932
54292,0.208,0.036,0.933
54312,0.207,0.044,0.933
54333,0.207,0.042,0.933
54358,0.209,0.046,0.946
54387,0.208,0.039,0.941
54415,0.208,0.037,0.939
54443,0.204,0.037,0.939
54472,0.212,0.042,0.929
54501,0.21,0.045,0.935
54530,0.207,0.042,0.945
54562,0.206,0.037,0.938
54587,0.201,0.042,0.937
54616,0.204,0.039,0.94
54644,0.208,0.044,0.942
54673,0.209,0.041,0.933
54702,0.208,0.045,0.934
54730,0.208,0.036,0.936
54759,0.207,0.042,0.935
54784,0.212,0.045,0.938
54812,0.215,0.042,0.923
54841,0.21,0.044,0.937
54870,0.208,0.042,0.934
54898,0.21,0.045,0.926
54927,0.203,0.045,0.931
54955,0.213,0.045,0.935
54980,0.208,0.038,0.937
55009,0.209,0.042,0.932
55038,0.209,0.052,0.935
55066,0.212,0.041,0.928
55087,0.209,0.041,0.94
55111,0.209,0.044,0.933
55132,0.212,0.044,0.932
55153,0.197,0.043,0.943
55177,0.203,0.039,0.929
55197,0.212,0.049,0.937
55218,0.208,0.036,0.939
55242,0.211,0.041,0.929
55271,0.204,0.047,0.931
55295,0.206,0.041,0.94
55324,0.206,0.04,0.934
55353,0.207,0.044,0.944
55382,0.207,0.042,0.938
55410,0.211,0.049,0.933
55439,0.216,0.037,0.927
55468,0.207,0.042,0.937
55492,0.21,0.039,0.928
55521,0.205,0.047,0.935
55549,0.215,0.044,0.937
55578,0.218,0.04,0.937
55607,0.209,0.042,0.937
55636,0.205,0.042,0.932
55656,0.205,0.046,0.936
55676,0.206,0.046,0.928
55701,0.207,0.04,0.942
55722,0.208,0.037,0.933
55742,0.199,0.046,0.937
55767,0.207,0.046,0.938
55787,0.208,0.04,0.934
55808,0.21,0.044,0.937
55832,0.208,0.04,0.937
55853,0.21,0.046,0.939
55873,0.208,0.047,0.936
55898,0.21,0.042,0.937
55918,0.201,0.044,0.931
55939,0.214,0.04,0.93
55963,0.208,0.046,0.925
55984,0.209,0.045,0.931
56004,0.202,0.045,0.938
56029,0.205,0.044,0.94
56050,0.208,0.042,0.942
56070,0.209,0.044,0.935
56094,0.209,0.043,0.936
56115,0.207,0.042,0.929
56135,0.208,0.044,0.939
56160,0.204,0.045,0.931
56180,0.206,0.044,0.928
56201,0.209,0.04,0.941
56225,0.213,0.043,0.932
56246,0.21,0.042,0.93
56267,0.21,0.044,0.938
56291,0.209,0.043,0.934
56311,0.209,0.047,0.936
56332,0.211,0.034,0.934
56356,0.202,0.05,0.945
56377,0.206,0.044,0.925
56397,0.208,0.045,0.931
56422,0.211,0.042,0.935
56442,0.207,0.044,0.938
56467,0.209,0.044,0.932
56487,0.212,0.041,0.931
56508,0.214,0.031,0.936
56532,0.198,0.037,0.957
56553,0.2,0.041,0.926
56573,0.212,0.042,0.935
56598,0.211,0.048,0.932
56619,0.207,0.047,0.943
56639,0.202,0.047,0.938
56663,0.207,0.044,0.932
56684,0.208,0.047,0.942
56704,0.212,0.04,0.935
56729,0.209,0.037,0.94
56750,0.21,0.041,0.923
56770,0.206,0.039,0.935
56795,0.215,0.042,0.943
56815,0.202,0.045,0.934
56836,0.196,0.047,0.946
56860,0.212,0.033,0.946
56880,0.213,0.043,0.924
56901,0.209,0.04,0.935
56926,0.213,0.045,0.936
56946,0.199,0.04,0.919
56967,0.165,0.041,1.009
56991,0.199,0.007,1.025
57012,0.234,0.006,0.941
57032,0.142,0.021,0.933
57057,0.468,0.09,0.632
57077,0.272,0.131,0.771
57098,0.157,0.013,1.086
57122,0.018,0.089,1.158
57143,0.037,0.117,1.079
57163,0.073,0.099,0.807
57188,0.116,0.175,1.188
57208,0.162,0.046,0.817
57229,0.217,0.073,0.916
57254,0.202,0.042,0.934
57274,0.176,0.083,0.94
57294,0.214,0.047,0.836
57319,0.201,0.047,0.91
57339,0.179,0.02,0.883
57360,0.234,0.115,1.012
57384,0.275,0.117,0.931
57405,0.448,0.001,1.191
57425,0.296,0.055,0.824
57450,0.228,0.093,0.941
57471,0.199,0.078,0.974
57491,0.172,0.064,0.964
57515,0.188,0.025,0.962
57536,0.253,0.042,0.989
57556,0.288,0.049,0.973
57581,0.245,-0.041,0.901
57602,0.177,0.036,0.951
57626,0.241,0.067,0.944
57646,0.204,0.054,1.021
57667,0.181,0.014,0.84
57691,0.209,0.084,0.927
57712,0.198,0.051,0.933
57732,0.203,0.029,0.939
57757,0.204,0.046,0.94
57777,0.183,0.013,0.946
57798,0.2,0.044,0.938
57823,0.209,0.041,0.919
57843,0.206,0.05,0.938
57864,0.192,0.048,0.939
57888,0.205,0.047,0.943
57909,0.199,0.042,0.941
57929,0.198,0.04,0.931
57954,0.181,0.045,0.953
57974,0.2,0.033,0.943
57995,0.191,0.101,0.932
58020,0.161,0.077,0.934
58040,0.194,0.102,0.965
58060,0.209,0.049,0.93
58085,0.182,0.099,0.938
58106,0.208,0.066,0.9
58126,0.272,0.018,0.968
58151,0.199,0.043,0.943
58171,0.166,0.077,0.949
58191,0.32,0.01,1.189
58216,0.191,0.036,0.931
58236,0.223,-0.004,0.904
58261,0.178,0.05,0.965
58281,0.211,0.032,0.947
58302,0.149,0.081,0.95
58326,0.24,0.023,0.924
58347,0.181,0.075,0.929
58368,0.191,0.051,0.956
58392,0.19,0.05,0.952
58412,0.199,0.064,0.927
58433,0.162,0.074,0.947
58457,0.21,0.029,0.948
58478,0.193,0.05,0.923
58498,0.186,0.055,0.924
58523,0.207,0.039,0.937
58543,0.191,0.046,0.95
58564,0.195,0.034,0.94
58589,0.175,0.037,0.967
58609,0.21,0.03,0.942
58629,0.176,0.063,0.898
58654,0.171,0.062,0.926
58674,0.19,0.033,0.96
58695,0.167,0.05,0.94
58719,0.179,0.048,0.955
58740,0.175,0.05,0.937
58760,0.173,0.047,0.942
58785,0.18,0.042,0.942
58806,0.15,0.03,0.952
58826,0.178,0.044,0.955
58851,0.19,0.032,0.922
58871,0.18,0.041,0.938
58892,0.192,0.048,0.945
58916,0.19,0.042,0.93
58937,0.183,0.048,0.938
58957,0.189,0.04,0.932
58982,0.183,0.046,0.941
59003,0.179,0.049,0.931
59023,0.19,0.049,0.941
59047,0.181,0.048,0.936
59068,0.178,0.04,0.938
59089,0.184,0.047,0.938
59113,0.209,0.015,0.946
59133,0.241,0.013,0.894
59154,0.184,0.041,0.978
59178,0.221,0.03,0.916
59199,0.379,0.05,0.984
59223,-0.004,0.314,0.366
59244,0.568,-0.403,1.548
59269,0.223,-0.032,0.905
59289,0.15,-0.058,0.86
59313,0.142,0.015,0.985
59334,0.274,-0.04,0.793
59358,0.155,-0.03,0.934
59379,0.202,0.053,0.927
59399,0.193,0.047,0.935
59424,0.457,0.183,0.939
59444,0.059,-0.002,1.452
59469,0.051,0.181,0.917
59490,0.017,0.195,0.906
59514,-0.039,0.104,0.757
59535,0.119,0.081,0.938
59559,0.254,-0.367,0.802
59580,0.115,0.191,0.849
59600,0.186,0.053,0.944
59625,0.216,0.026,0.925
59645,0.191,0.042,0.939
59666,0.194,0.031,0.936
59690,0.238,0.484,1.181
59711,0.147,0.465,0.426
59731,0.367,0.214,0.479
59756,0.274,0.128,0.556
59776,-0.403,0.384,1.125
59801,0.528,-0.021,0.534
59822,0.271,0.513,1.317
59846,-0.055,-0.208,2.0
59866,0.744,0.071,1.789
59891,0.132,1.226,1.24
59911,0.554,0.35,0.958
59932,0.729,0.462,0.99
59956,1.183,0.23,1.405
59977,1.338,-0.44,1.616
60002,0.136,-0.185,1.274
60026,-0.986,0.239,-0.334
60047,-0.609,0.336,0.449
60071,0.98,-0.614,0.177
60092,0.72,0.123,0.205
60116,-0.284,0.971,-0.366
60141,-0.088,0.693,-0.46
60161,1.419,-1.054,1.575
60186,2.0,-0.997,1.944
60210,1.678,-0.137,1.337
60231,0.191,0.45,0.351
60255,0.033,0.949,-0.391
60276,0.285,1.94,-0.245
60301,0.764,1.395,0.575
60322,0.483,-0.411,1.197
60345,0.164,-1.599,1.48
60366,0.497,-2.0,1.887
60391,0.693,-2.0,1.558
60415,-1.027,-0.585,0.876
60436,-0.452,2.0,0.326
60460,1.493,1.781,0.717
60481,2.0,1.398,0.945
60501,1.641,1.141,0.98
60526,1.07,1.239,0.863
60546,0.68,0.951,1.0
60571,0.189,-0.136,1.202
60591,-0.364,-1.517,1.217
60616,0.147,-2.0,1.145
60640,0.784,-2.0,1.294
60661,-0.417,-0.8,0.635
60686,-0.315,0.282,0.377
60706,0.804,1.321,0.529
60730,1.37,2.0,0.621
60751,1.547,1.797,0.85
60771,1.298,0.577,1.081
60796,0.741,0.045,1.126
60817,0.431,-0.235,1.033
60841,0.236,-0.894,1.123
60866,-0.009,-2.0,1.21
60886,0.632,-2.0,1.47
60911,-0.378,-1.523,0.938
60935,-0.732,1.569,0.471
60956,0.765,2.0,0.828
60976,1.956,2.0,0.919
61001,1.659,0.481,1.136
61022,0.737,-0.698,1.479
61046,0.746,-1.636,1.682
61071,1.851,-1.513,2.0
61091,2.0,-0.483,1.959
61112,0.212,0.666,1.278
61136,-2.0,1.509,-0.371
61161,-1.696,-0.27,-0.815
61186,-1.236,-0.171,-0.523
61210,-1.302,0.137,-0.359
61234,-1.505,-0.589,1.671
61259,1.093,-0.018,2.0
61279,2.0,0.395,2.0
61300,2.0,0.115,2.0
61324,0.564,0.12,2.0
61349,-0.337,-0.176,1.623
61370,0.365,-0.011,0.779
61394,1.05,-0.282,0.766
61415,-0.044,0.28,0.246
61439,-1.616,1.004,-0.906
61464,-2.0,-0.051,-0.813
61488,-1.776,-0.255,-0.214
61513,-0.581,0.109,1.961
61533,1.363,0.651,2.0
61558,2.0,0.561,2.0
61578,2.0,-0.416,2.0
61603,0.689,0.035,2.0
61623,0.006,0.31,2.0
61644,0.13,0.35,1.251
61669,-0.786,0.344,0.682
61693,-1.938,1.353,-1.091
61718,-1.575,0.716,-0.838
61742,-1.124,-0.142,-0.29
61763,-1.488,0.091,0.572
61787,-0.402,0.029,2.0
61808,1.58,-0.125,2.0
61832,2.0,0.424,2.0
61853,2.0,0.342,2.0
61878,1.011,-0.006,2.0
61898,0.131,-0.054,1.543
61922,-0.184,0.34,1.049
61943,-0.115,0.356,0.375
61967,-0.706,0.411,-0.106
61992,-1.695,0.72,-0.757
62017,-1.199,-0.641,-0.865
62041,-1.676,0.182,-0.218
62066,-1.029,0.53,2.0
62087,1.442,0.303,2.0
62107,2.0,0.233,2.0
62131,2.0,0.291,2.0
62152,0.356,0.392,2.0
62176,-0.732,0.264,1.535
62197,-1.725,0.251,0.007
62222,-2.0,0.601,-1.234
62246,-1.409,-0.104,-0.803
62271,-0.919,-0.094,-0.117
62295,-0.244,0.385,1.797
62316,1.531,0.236,2.0
62336,2.0,0.168,2.0
62361,1.828,0.112,1.98
62381,0.2,0.21,1.576
62406,-0.262,0.246,0.678
62426,-0.326,0.079,0.509
62451,-0.115,-0.093,0.316
62475,-0.03,0.156,0.984
62496,0.337,0.196,1.549
62516,1.186,0.002,0.163
62541,0.757,0.039,0.408
62561,0.623,0.032,0.857
62586,-0.435,0.463,1.695
62606,-0.598,0.183,0.378
62631,-0.075,0.236,0.746
62651,0.134,0.157,0.712
62676,0.606,-0.109,1.158
62696,0.05,-0.248,0.785
62722,0.2,0.052,0.97
62742,0.114,0.059,1.017
62762,0.052,0.141,1.051
62787,0.068,0.134,0.951
62807,0.132,0.062,0.974
62828,0.121,0.076,0.956
62852,0.104,0.087,0.939
62873,0.093,0.094,0.939
62893,0.119,0.072,0.948
62918,0.106,0.083,0.95
62939,0.11,0.086,0.943
62959,0.104,0.091,0.935
62983,0.105,0.083,0.95
63004,0.114,0.078,0.934
63024,0.112,0.077,0.94
63049,0.107,0.078,0.942
63069,0.109,0.081,0.946
63090,0.106,0.071,0.948
63114,0.106,0.084,0.92
63135,0.115,0.074,0.947
63155,0.107,0.08,0.94
63180,0.139,0.065,0.919
63200,0.094,0.086,0.937
63221,0.116,0.065,0.95
63245,0.121,0.065,0.942
63266,0.104,0.082,0.941
63287,0.109,0.068,0.948
63311,0.097,0.068,0.948
63331,0.098,0.074,0.949
63352,0.108,0.071,0.944
63376,0.11,0.067,0.946
63397,0.106,0.067,0.947
63418,0.103,0.073,0.938
63442,0.106,0.073,0.946
63462,0.102,0.074,0.945
63483,0.103,0.067,0.946
63508,0.109,0.063,0.949
63528,0.098,0.075,0.942
63548,0.102,0.072,0.966
63573,0.109,0.065,0.951
63594,0.1,0.063,0.957
63614,0.104,0.061,0.95
63639,0.104,0.074,0.954
63659,0.093,0.073,0.953
63680,0.103,0.064,0.958
63705,0.107,0.058,0.96
63725,0.098,0.07,0.937
63750,0.102,0.072,0.946
63770,0.104,0.062,0.955
63790,0.103,0.061,0.945
63815,0.1,0.07,0.95
63836,0.098,0.067,0.944
63856,0.104,0.068,0.963
63880,0.103,0.068,0.946
63901,0.105,0.066,0.947
63922,0.098,0.063,0.944
63946,0.108,0.06,0.955
63967,0.099,0.066,0.94
63987,0.106,0.064,0.959
64011,0.101,0.069,0.962
64032,0.114,0.049,0.955
64053,0.108,0.061,0.941
64077,0.089,0.067,0.959
64097,0.108,0.056,0.945
64118,0.101,0.068,0.948
64142,0.117,0.05,0.95
64163,0.106,0.066,0.948
64184,0.107,0.063,0.955
64208,0.098,0.063,0.95
64228,0.1,0.055,0.963
64249,0.1,0.06,0.955
64274,0.097,0.068,0.949
64294,0.104,0.059,0.948
64314,0.109,0.06,0.952
64339,0.102,0.061,0.944
64360,0.102,0.067,0.948
64380,0.104,0.063,0.948
64405,0.101,0.06,0.951
64425,0.098,0.067,0.951
64445,0.109,0.063,0.948
64470,0.102,0.066,0.943
64491,0.097,0.061,0.952
64511,0.095,0.07,0.944
64536,0.094,0.057,0.962
64556,0.108,0.059,0.953
64577,0.112,0.062,0.947
64602,0.098,0.064,0.944
64622,0.111,0.057,0.952
64642,0.098,0.059,0.944
64667,0.069,0.068,0.967
64687,0.112,0.068,0.934
64708,0.109,0.062,0.947
64732,0.104,0.058,0.955
64753,0.103,0.059,0.945
64773,0.099,0.066,0.933
64798,0.101,0.062,0.953
64818,0.103,0.066,0.956
64839,0.1,0.071,0.932
64863,0.124,0.076,0.952
64884,0.111,0.07,0.94
64904,0.098,0.066,0.947
64929,0.105,0.056,0.945
64949,0.104,0.057,0.959
64970,0.104,0.058,0.951
64994,0.098,0.057,0.951
65015,0.1,0.06,0.941
65035,0.101,0.06,0.95
65060,0.115,0.066,0.949
65080,0.095,0.068,0.942
65101,0.094,0.063,0.941
65126,0.104,0.058,0.952
65146,0.104,0.062,0.948
65166,0.102,0.053,0.943
65191,0.101,0.057,0.955
65211,0.096,0.062,0.951
65232,0.108,0.054,0.955
65256,-1.335,-0.377,0.049
65277,0.803,0.09,1.727
65302,0.569,0.124,0.71
65322,0.531,0.298,1.237
65342,0.251,0.078,1.17
65367,0.163,-0.211,1.048
65392,0.383,-0.408,1.204
65412,0.305,-0.513,1.405
65437,0.244,0.12,1.285
65457,0.212,1.073,1.125
65482,-0.042,1.733,0.339
65503,-0.316,1.633,0.296
65523,0.411,0.86,0.823
65547,0.947,0.584,1.252
65568,1.046,-0.044,1.535
65592,0.273,-1.262,1.754
65617,-0.143,-2.0,1.095
65641,-0.297,-1.587,0.809
65662,-0.114,0.422,0.747
65687,0.513,1.29,0.579
65707,0.899,1.722,0.664
65727,1.23,1.585,0.962
65752,1.223,1.142,1.047
65773,0.72,0.512,1.03
65797,0.231,-0.262,1.004
65818,0.162,-1.174,1.178
65842,0.612,-2.0,1.265
65863,0.206,-2.0,1.022
65887,-0.558,-0.903,0.446
65912,-0.392,1.082,0.359
65932,0.769,2.0,0.738
65953,2.0,2.0,1.181
65977,2.0,1.376,1.497
65998,0.645,0.865,1.26
66022,-0.492,-0.359,1.303
66043,0.109,-2.0,1.354
66068,0.757,-2.0,1.315
66092,-0.39,-2.0,0.897
66117,-1.225,1.12,0.388
66137,0.13,2.0,0.846
66158,2.0,2.0,1.894
66183,2.0,1.271,2.0
66203,0.384,0.486,1.601
66227,-1.292,-0.958,1.026
66248,0.086,-2.0,1.07
66272,0.579,-2.0,1.091
66293,-0.282,0.083,0.943
66317,0.536,1.73,0.718
66338,1.469,2.0,0.973
66358,1.763,1.469,1.244
66383,1.334,0.758,1.208
66403,0.606,0.446,0.953
66428,0.054,-0.761,0.924
66453,-0.094,-2.0,0.949
66473,0.318,-2.0,0.942
66497,-0.635,-0.25,0.687
66518,0.198,2.0,0.718
66542,2.0,2.0,1.525
66563,2.0,1.141,1.684
66584,0.872,0.738,1.289
66608,-0.748,-0.487,0.939
66633,-0.124,-2.0,1.2
66657,0.368,-2.0,0.962
66678,-0.868,0.172,0.646
66702,0.282,2.0,0.775
66723,2.0,2.0,1.74
66743,2.0,1.202,1.83
66768,1.091,1.068,1.365
66788,-0.617,-0.102,1.126
66813,-0.752,-2.0,1.282
66837,0.322,-2.0,1.116
66862,-1.024,-1.23,0.719
66882,-0.668,2.0,1.166
66907,2.0,2.0,2.0
66928,2.0,1.87,2.0
66948,1.427,0.948,1.834
66973,-1.059,-0.058,1.419
66997,-0.782,-2.0,1.492
67022,0.497,-2.0,1.145
67042,-1.079,-1.109,0.897
67067,-0.47,2.0,1.12
67087,2.0,2.0,2.0
67112,2.0,1.674,2.0
67132,1.278,0.174,2.0
67157,-1.148,-0.99,1.632
67181,-0.69,-2.0,1.137
67206,-0.315,-2.0,0.788
67227,-1.228,0.615,0.778
67247,0.53,2.0,1.382
67272,2.0,2.0,2.0
67292,2.0,0.068,2.0
67316,0.28,-1.183,2.0
67341,-1.291,-2.0,0.663
67362,-0.666,-2.0,0.241
67386,-0.692,-0.303,0.468
67411,0.881,2.0,1.325
67431,2.0,1.911,1.743
67452,2.0,-0.133,1.666
67477,0.065,-0.66,0.914
67502,-0.599,-1.344,0.24
67525,0.27,-1.364,0.378
67546,0.662,0.368,0.394
67566,0.997,1.219,0.63
67591,1.585,0.041,1.097
67611,1.334,-0.356,0.887
67632,0.311,0.136,0.298
67657,0.187,-0.458,0.26
67681,0.469,-0.847,0.528
67702,0.9,-0.434,0.755
67726,1.18,0.19,0.722
67747,1.068,0.219,0.639
67767,0.745,-0.137,0.529
67792,0.494,-0.398,0.499
67816,0.564,-0.454,0.522
67837,0.712,-0.263,0.565
67861,0.81,-0.16,0.584
67882,0.731,-0.196,0.557
67906,0.707,-0.414,0.683
67931,0.81,-0.414,0.723
67952,0.808,-0.161,0.672
67976,0.748,-0.02,0.585
67996,0.661,-0.175,0.623
68021,0.694,-0.38,0.694
68046,0.768,-0.323,0.683
68066,0.742,-0.135,0.636
68091,0.685,-0.18,0.619
68111,0.636,-0.241,0.57
68136,0.639,-0.247,0.596
68160,0.701,-0.191,0.658
68181,0.823,-0.283,0.751
68205,0.794,-0.265,0.681
68226,0.564,-0.172,0.549
68251,0.508,-0.207,0.597
68271,0.796,-0.408,0.813
68296,0.937,-0.263,0.732
68316,0.724,0.013,0.59
68341,0.58,-0.071,0.516
68365,0.529,-0.208,0.483
68386,0.58,-0.224,0.584
68410,0.776,-0.227,0.623
68431,0.742,-0.091,0.451
68455,0.412,-0.024,0.376
68480,0.304,-0.154,0.582
68501,0.217,-0.024,1.214
68521,0.448,0.136,0.611
68545,0.292,-0.278,0.735
68570,-0.1,-0.069,0.402
68590,-0.119,0.208,1.119
68615,0.441,0.014,1.92
68636,1.354,-0.125,1.642
68660,0.94,-0.062,1.059
68685,-0.232,0.136,0.894
68705,-0.71,0.554,0.767
68730,-0.155,0.335,0.914
68750,0.533,0.031,0.922
68771,0.284,0.17,0.849
68795,0.094,0.026,0.789
68820,-0.486,-0.78,2.0
68840,0.079,0.16,0.805
68861,0.048,0.159,0.829
68886,0.004,0.106,1.052
68906,0.177,0.05,1.233
68926,0.117,0.015,0.807
68951,0.166,0.001,0.999
68971,0.123,0.052,0.942
68992,0.086,0.094,0.923
69016,0.078,0.099,0.915
69037,0.102,0.056,0.964
69057,0.109,0.067,0.961
69082,0.09,0.095,0.903
69103,0.095,0.088,0.933
69123,0.095,0.076,0.963
69147,0.095,0.08,0.938
69168,0.042,0.085,1.017
69188,0.095,0.104,1.045
69213,0.123,0.061,0.954
69233,0.141,0.079,0.932
69254,0.065,0.114,0.93
69278,0.075,0.057,1.051
69299,0.113,0.074,0.92
69320,0.065,0.099,0.944
69344,0.097,0.088,0.945
69364,0.117,0.055,0.971
69386,0.067,0.086,0.967
69409,0.08,0.1,0.934
69430,0.082,0.091,0.95
69451,0.099,0.061,0.972
69475,0.099,0.072,0.949
69495,0.079,0.097,0.938
69516,0.098,0.079,0.949
69541,0.098,0.073,0.96
69561,0.092,0.074,0.952
69581,0.084,0.077,0.943
69607,0.093,0.072,0.941
69627,0.094,0.08,0.944
69647,0.092,0.076,0.948
69672,0.085,0.084,0.946
69693,0.095,0.074,0.947
69713,0.093,0.075,0.95
69737,0.088,0.07,0.944
69758,0.088,0.086,0.958
69778,0.093,0.074,0.942
69803,0.097,0.074,0.946
69823,0.096,0.066,0.952
69844,0.092,0.076,0.955
69869,0.096,0.075,0.956
69889,0.096,0.078,0.944
69909,0.095,0.078,0.954
69934,0.084,0.08,0.938
69954,0.094,0.082,0.947
69975,0.09,0.071,0.948
70000,0.093,0.075,0.954
70020,0.084,0.067,0.938
70040,0.086,0.068,0.992
70065,0.084,0.076,0.939
70086,0.088,0.075,0.975
70106,0.094,0.066,0.929
70130,0.097,0.074,0.94
70151,0.092,0.062,0.947
70172,0.082,0.074,0.97
70196,0.09,0.073,0.944
70216,0.088,0.08,0.952
70237,0.091,0.074,0.947
70261,0.086,0.077,0.946
70282,0.092,0.067,0.954
70303,0.086,0.07,0.948
70327,0.091,0.065,0.94
70347,0.092,0.072,0.957
70368,0.087,0.07,0.952
70393,0.089,0.063,0.952
70413,0.097,0.063,0.948
70433,0.082,0.078,0.96
70458,0.093,0.064,0.947
70479,0.09,0.072,0.95
70499,0.088,0.073,0.948
70524,0.087,0.07,0.943
70544,0.095,0.066,0.956
70565,0.093,0.064,0.945
70589,0.093,0.065,0.95
70610,0.094,0.069,0.956
70630,0.093,0.067,0.951
70655,0.087,0.073,0.947
70675,0.096,0.071,0.949
70696,0.09,0.073,0.95
70721,0.089,0.077,0.949
70741,0.098,0.068,0.946
70761,0.092,0.074,0.954
70786,0.088,0.071,0.953
70806,0.089,0.073,0.945
70827,0.089,0.064,0.938
70851,0.088,0.069,0.952
70872,0.093,0.071,0.949
70892,0.088,0.065,0.949
70917,0.088,0.065,0.946
70938,0.093,0.067,0.947
70958,0.091,0.07,0.951
70982,0.092,0.067,0.947
71003,0.086,0.065,0.949
71023,0.094,0.064,0.956
71048,0.089,0.067,0.957
71069,0.088,0.065,0.944
71089,0.088,0.07,0.953
71113,0.088,0.071,0.953
71134,0.092,0.067,0.949
71154,0.091,0.064,0.954
71179,0.092,0.071,0.941
71199,0.082,0.066,0.95
71220,0.083,0.069,0.956
71244,0.093,0.069,0.952
71265,0.086,0.064,0.949
71286,0.089,0.061,0.942
71310,0.087,0.066,0.951
71330,0.1,0.073,0.946
71355,0.086,0.067,0.95
71375,0.092,0.069,0.947
71396,0.092,0.068,0.948
71422,0.088,0.068,0.945
71441,0.098,0.072,0.952
71462,0.089,0.061,0.944
71486,0.088,0.069,0.946
71507,0.094,0.065,0.945
71527,0.091,0.068,0.954
71552,0.088,0.066,0.947
71572,0.087,0.069,0.946
71593,0.091,0.07,0.948
71617,0.084,0.068,0.945
71638,0.093,0.066,0.947
71658,0.09,0.065,0.943
71683,0.091,0.068,0.952
71703,0.089,0.064,0.955
71724,0.085,0.065,0.947
71748,0.091,0.065,0.946
71769,0.092,0.061,0.954
71789,0.093,0.067,0.948
71814,0.091,0.064,0.945
71835,0.097,0.064,0.949
71855,0.091,0.064,0.945
71880,0.088,0.061,0.942
71900,0.086,0.063,0.952
71921,0.094,0.063,0.951
71945,0.089,0.064,0.956
71965,0.09,0.07,0.953
71986,0.09,0.063,0.957
72010,0.089,0.063,0.957
72031,0.09,0.065,0.951
72052,0.091,0.062,0.945
72076,0.088,0.069,0.947
72096,0.091,0.068,0.955
72117,0.092,0.069,0.953
72141,0.09,0.07,0.937
72162,0.081,0.07,0.951
72182,0.094,0.066,0.947
72207,0.09,0.065,0.954
72227,0.09,0.066,0.946
72248,0.088,0.067,0.945
72272,0.091,0.067,0.953
72293,0.095,0.068,0.95
72314,0.088,0.063,0.95
72338,0.085,0.065,0.941
72359,0.089,0.072,0.952
72379,0.092,0.063,0.951
72404,0.095,0.062,0.948
72424,0.089,0.067,0.944
72445,0.095,0.063,0.959
72469,0.093,0.066,0.953
72490,0.086,0.064,0.946
72510,0.09,0.065,0.954
72535,0.097,0.066,0.945
72555,0.091,0.064,0.944
72576,0.088,0.065,0.949
72600,0.09,0.063,0.949
72621,0.096,0.061,0.961
72641,0.092,0.064,0.939
72667,0.082,0.071,0.955
72687,0.091,0.061,0.95
72707,0.088,0.062,0.955
72731,0.093,0.062,0.955
72752,0.095,0.063,0.949
72772,0.086,0.068,0.954
72797,0.097,0.064,0.947
72818,0.093,0.061,0.939
72838,0.085,0.061,0.954
72862,0.093,0.064,0.951
72883,0.089,0.063,0.955
72904,0.089,0.059,0.953
72928,0.085,0.064,0.938
72948,0.094,0.065,0.952
72969,0.095,0.061,0.957
72993,0.089,0.061,0.947
73014,0.092,0.068,0.956
73035,0.089,0.068,0.948
73059,0.092,0.061,0.957
73079,0.089,0.056,0.938
73100,0.089,0.063,0.95
73124,0.092,0.066,0.943
73145,0.095,0.067,0.942
73166,0.092,0.062,0.952
73190,0.078,0.062,0.947
73210,0.089,0.061,0.949
73231,0.09,0.064,0.95
73255,0.087,0.061,0.945
73276,0.087,0.067,0.944
73296,0.088,0.064,0.951
73321,0.085,0.06,0.954
73342,0.086,0.062,0.951
73362,0.091,0.062,0.948
73387,0.09,0.06,0.952
73407,0.089,0.063,0.945
73427,0.084,0.065,0.946
73452,0.088,0.064,0.943
73473,0.086,0.066,0.951
73493,0.092,0.063,0.957
73518,0.087,0.064,0.943
73538,0.089,0.067,0.948
73559,0.092,0.061,0.948
73583,0.089,0.063,0.955
73604,0.087,0.062,0.941
73624,0.091,0.06,0.948
73649,0.098,0.061,0.944
73670,0.088,0.07,0.943
73690,0.084,0.067,0.953
73714,0.086,0.06,0.945
73735,0.092,0.065,0.948
73755,0.086,0.057,0.956
73780,0.086,0.061,0.948
73800,0.087,0.059,0.943
73821,0.095,0.058,0.947
73845,0.092,0.063,0.96
73866,0.086,0.063,0.948
73887,0.085,0.063,0.948
73911,0.094,0.056,0.944
73931,0.09,0.061,0.951
73952,0.084,0.068,0.956
73976,0.088,0.06,0.948
73997,0.088,0.063,0.937
74018,0.092,0.064,0.944
74042,0.094,0.064,0.964
74062,0.088,0.066,0.937
74083,0.092,0.062,0.967
74108,0.091,0.054,0.953
74128,0.084,0.069,0.956
74149,0.098,0.062,0.944
74173,0.092,0.063,0.958
74193,0.083,0.069,0.948
74214,0.096,0.061,0.955
74239,0.09,0.062,0.957
74259,0.088,0.059,0.952
74279,0.097,0.061,0.949
74305,0.081,0.063,0.949
74324,0.085,0.059,0.954
74345,0.091,0.059,0.952
74370,0.086,0.058,0.946
74390,0.09,0.06,0.946
74410,0.084,0.071,0.948
74435,0.091,0.057,0.95
74455,0.093,0.06,0.954
74476,0.092,0.066,0.953
74501,0.091,0.064,0.946
74521,0.094,0.058,0.945
74542,0.09,0.061,0.953
74566,0.085,0.07,0.952
74587,0.097,0.059,0.949
74607,0.096,0.061,0.951
74632,0.086,0.062,0.948
74652,0.083,0.056,0.954
74673,0.09,0.065,0.95
74697,0.08,0.077,0.934
74718,0.099,0.054,0.955
74742,0.09,0.063,0.953
74763,0.093,0.057,0.947
74784,0.089,0.06,0.941
74808,0.084,0.064,0.955
74828,0.098,0.06,0.951
74849,0.086,0.071,0.957
74873,0.086,0.059,0.946
74894,0.09,0.058,0.958
74914,0.087,0.061,0.953
74939,0.088,0.056,0.948
74959,0.087,0.06,0.948
74980,0.089,0.069,0.954
75004,0.084,0.064,0.95
75025,0.087,0.064,0.944
75045,0.089,0.062,0.95
75070,0.093,0.058,0.957
75090,0.09,0.058,0.946
75111,0.084,0.065,0.949
75135,0.09,0.063,0.943
75156,0.087,0.063,0.949
75176,0.088,0.065,0.947
75201,0.093,0.061,0.944
75222,0.082,0.064,0.958
75242,0.083,0.063,0.951
75266,0.034,0.076,0.927
75287,-0.147,-0.431,1.295
75312,0.166,-0.197,0.414
75332,0.144,0.165,1.069
75357,0.299,0.279,0.761
75377,0.838,-0.279,1.299
75402,-0.275,-0.299,0.916
75422,0.2,0.451,0.823
75447,0.695,0.042,0.937
75468,-0.023,0.087,0.938
75492,0.015,0.053,0.9
75512,0.344,0.036,0.804
75537,0.854,-0.198,0.954
75557,0.286,0.043,0.95
75582,-0.354,0.131,0.962
75603,1.17,-0.072,1.782
75623,1.441,0.163,1.823
75647,0.868,0.178,1.592
75668,0.202,-0.19,1.232
75693,0.002,-0.083,0.813
75717,-0.02,0.136,0.473
75738,-0.61,0.1,-0.106
75762,-1.654,0.365,-0.823
75787,-1.586,1.129,-1.41
75811,-0.707,1.208,-0.252
75836,2.0,-2.0,2.0
75856,1.529,-1.832,2.0
75877,0.889,0.496,0.961
75902,-0.326,0.503,-0.133
75926,-0.26,0.241,-0.191
75951,0.569,-0.37,0.617
75971,0.556,-0.215,0.624
75995,0.519,0.037,0.481
76016,0.453,-0.014,0.501
76041,0.754,-0.377,0.885
76061,0.636,-0.661,0.961
76086,0.827,-0.444,1.022
76110,0.88,-0.547,1.12
76131,1.251,-0.503,1.261
76155,0.9,0.026,0.808
76176,0.503,0.016,0.492
76196,0.507,0.05,0.396
76221,0.459,-0.161,0.328
76245,-0.738,-0.499,-0.131
76270,-1.366,-0.57,-0.484
76295,-1.447,1.309,-1.298
76316,1.173,0.69,2.0
76340,2.0,-2.0,2.0
76360,0.544,-0.02,2.0
76385,0.323,1.128,0.306
76405,0.321,0.248,0.365
76426,0.322,0.23,0.095
76450,0.101,-0.104,0.168
76475,0.386,-0.001,0.246
76495,0.377,-0.091,0.272
76520,0.762,-0.301,0.635
76540,0.953,-0.393,0.824
76566,0.508,-0.353,0.578
76586,0.841,-0.28,0.726
76610,1.203,-0.436,1.016
76635,1.241,-0.182,0.889
76655,0.557,-0.173,0.4
76679,0.526,-0.034,0.164
76705,0.214,-0.122,-0.036
76729,-0.697,-0.366,-0.422
76754,-2.0,0.29,-1.35
76774,-1.59,1.575,0.728
76799,2.0,-2.0,2.0
76819,-0.327,0.238,2.0
76843,0.934,1.775,0.075
76869,-0.263,-0.117,-0.005
76893,-0.182,-0.146,-0.044
76918,0.961,-0.299,0.931
76938,0.561,-0.123,0.579
76962,0.535,-0.107,0.491
76983,0.697,-0.146,0.565
77007,1.086,-0.181,0.808
77028,0.577,-0.212,0.484
77053,0.663,-0.075,0.403
77073,0.751,0.033,0.454
77097,1.069,0.041,0.611
77118,0.232,-0.08,0.075
77142,0.303,-0.112,-0.031
77168,-0.158,-0.01,-0.405
77192,-1.917,0.243,-1.205
77216,-2.0,1.0,0.579
77237,2.0,-2.0,2.0
77261,-0.231,-0.56,2.0
77282,1.448,1.688,0.513
77306,-0.19,0.152,-0.012
77331,0.043,0.077,0.016
77351,0.548,-0.315,0.635
77376,0.639,-0.101,0.465
77396,0.355,0.025,0.134
77421,0.625,-0.1,0.343
77441,0.98,-0.205,0.619
77466,1.097,-0.303,0.707
77490,0.573,-0.182,0.26
77511,0.481,-0.002,0.127
77536,0.603,-0.066,0.16
77560,-0.043,-0.393,-0.057
77585,-0.415,-0.196,-0.36
77610,-1.327,0.09,-0.847
77630,-1.318,1.592,0.878
77654,2.0,-1.572,2.0
77675,1.656,-0.039,2.0
77699,0.365,1.358,0.311
77721,0.199,0.346,0.399
77744,0.853,0.322,0.629
77766,0.042,-0.389,0.389
77789,0.026,-0.031,0.04
77810,0.42,0.092,0.034
77835,0.402,-0.183,0.175
77855,0.449,-0.386,0.256
77880,0.558,-0.233,0.244
77901,0.93,-0.144,0.468
77925,1.127,-0.135,0.49
77949,1.095,-0.257,0.5
77970,0.956,-0.262,0.377
77994,0.727,-0.257,0.24
78019,0.315,-0.124,-0.08
78039,-0.383,0.041,-0.5
78064,-1.115,0.188,-0.734
78089,-0.948,0.842,0.566
78109,2.0,-0.973,2.0
78134,2.0,-0.504,2.0
78154,0.22,0.659,0.634
78179,0.612,0.214,0.836
78199,1.095,0.045,1.08
78220,0.445,0.037,0.439
78244,-0.53,-0.015,-0.117
78269,0.608,0.006,0.224
78289,0.567,-0.19,0.344
78314,0.606,-0.201,0.364
78338,0.507,-0.202,0.273
78359,0.576,-0.223,0.343
78383,0.977,-0.318,0.668
78404,1.033,-0.23,0.656
78429,1.001,-0.147,0.582
78453,0.793,-0.063,0.404
78473,0.677,-0.088,0.371
78498,1.118,-0.137,0.665
78519,0.963,-0.112,0.588
78543,0.794,-0.274,0.528
78564,0.611,-0.655,0.499
78588,1.056,-0.777,0.852
78613,0.412,-0.019,0.259
78634,0.942,1.791,-0.212
78658,1.655,2.0,-0.724
78678,0.76,2.0,0.272
78703,0.415,0.956,1.996
78723,-1.799,-2.0,1.856
78748,-2.0,-2.0,2.0
78772,-0.171,-2.0,1.522
78797,-0.504,-0.396,1.182
78817,1.426,2.0,0.677
78842,2.0,2.0,-0.608
78863,1.676,2.0,-0.214
78887,0.802,1.228,1.085
78912,-0.803,-1.202,1.405
78933,-2.0,-2.0,1.596
78957,-0.385,-2.0,1.624
78981,-0.239,-0.965,1.135
79002,0.656,1.494,0.607
79027,1.77,2.0,-0.771
79051,1.386,2.0,-0.833
79072,1.04,1.969,0.975
79096,-0.507,-0.861,1.716
79121,-1.739,-2.0,1.833
79141,-0.8,-2.0,1.625
79166,-0.353,-1.982,1.337
79190,0.253,0.065,1.04
79211,1.461,2.0,0.244
79236,2.0,2.0,-1.049
79256,1.113,2.0,-0.132
79280,-0.382,0.108,1.253
79305,-1.497,-2.0,1.706
79325,-1.182,-2.0,1.27
79350,-1.017,-2.0,0.677
79375,0.18,-1.019,0.742
79395,2.0,0.429,1.707
79420,2.0,2.0,0.888
79440,1.625,2.0,-0.519
79465,0.273,2.0,-0.045
79485,-0.792,0.196,1.168
79510,-2.0,-2.0,1.461
79535,-0.704,-2.0,1.129
79559,-0.446,-2.0,0.945
79579,1.828,-0.706,1.817
79604,2.0,1.571,0.838
79625,2.0,2.0,-0.251
79649,1.189,2.0,-0.525
79674,-0.28,1.225,0.685
79694,-1.274,-1.186,1.662
79719,-1.312,-2.0,1.459
79743,-1.073,-2.0,0.658
79768,0.304,-1.631,0.523
79788,1.482,-0.612,0.714
79813,2.0,2.0,0.292
79834,1.527,0.851,-0.03
79858,1.063,1.443,0.027
79878,0.838,0.791,0.886
79903,-0.733,-0.72,1.271
79928,-0.447,-1.42,1.447
79948,-1.082,-1.562,0.835
79973,-0.864,-2.0,0.553
79997,0.071,-1.259,0.228
80018,1.004,-0.661,0.418
80042,2.0,0.686,0.26
80063,2.0,1.281,0.002
80083,1.664,1.422,0.273
80108,0.781,0.624,0.952
80132,-0.633,-0.644,1.588
80154,-0.881,-2.0,1.513
80178,-0.688,-1.526,0.692
80203,0.184,-0.929,0.535
80222,0.889,-0.482,0.406
80247,1.26,-0.035,0.313
80272,0.952,0.607,-0.016
80292,0.407,0.613,0.025
80317,0.904,-0.229,1.37
80337,1.006,-1.503,1.808
80362,0.191,-0.642,0.911
80382,0.255,0.022,0.365
80407,-0.366,0.112,-0.012
80431,1.392,-0.142,1.451
80452,1.375,-0.359,1.476
80472,0.153,0.094,0.542
80497,0.385,0.503,0.313
80517,-0.067,0.422,0.268
80542,-0.064,-0.217,0.692
80566,1.044,-0.297,1.273
80587,0.403,-0.183,0.962
80611,0.05,0.12,0.652
80632,-0.31,0.283,0.543
80656,0.595,0.127,1.253
80677,1.013,-0.275,1.582
80702,0.308,-0.291,1.227
80722,0.266,0.103,0.916
80743,0.163,0.27,0.741
80767,-0.416,0.288,1.068
80792,-0.181,-0.024,0.891
80812,0.19,0.071,0.771
80837,0.32,0.024,0.817
80857,0.468,-0.058,0.934
80882,0.314,0.032,0.864
80903,0.069,0.061,0.846
80923,-0.049,0.039,0.886
80947,-0.148,0.146,0.904
80968,0.004,0.217,0.97
80992,0.161,0.107,0.788
81013,0.204,0.068,0.995
81033,0.085,0.175,0.964
81058,0.08,0.139,0.929
81078,0.073,0.136,0.943
81099,0.09,0.115,0.948
81124,0.089,0.103,0.947
81144,0.089,0.106,0.952
81164,0.088,0.113,0.938
81189,0.086,0.106,0.941
81210,0.088,0.103,0.948
81230,0.09,0.105,0.942
81255,0.096,0.101,0.943
81275,0.09,0.102,0.946
81296,0.089,0.102,0.941
81320,0.094,0.101,0.94
81341,0.091,0.111,0.948
81361,0.088,0.103,0.939
81386,0.09,0.111,0.952
81406,0.086,0.101,0.948
81427,0.092,0.103,0.947
81451,0.092,0.1,0.955
81472,0.089,0.1,0.955
81493,0.089,0.107,0.942
81517,0.086,0.098,0.945
81537,0.088,0.102,0.946
81558,0.087,0.1,0.939
81582,0.091,0.097,0.951
81603,0.091,0.107,0.944
81623,0.092,0.103,0.935
81648,0.088,0.103,0.941
81669,0.086,0.097,0.95
81689,0.09,0.106,0.952
81713,0.088,0.104,0.944
81734,0.076,0.16,1.065
81754,0.094,0.096,0.859
81779,0.08,0.123,1.058
81799,0.102,0.108,0.986
81820,0.079,0.107,0.929
81844,0.12,0.08,0.943
81865,0.069,0.102,0.953
81886,0.116,0.088,0.93
81910,0.076,0.117,0.931
81930,0.069,0.107,0.992
81951,0.127,0.063,0.974
81976,0.076,0.111,0.934
81996,0.095,0.091,0.94
82016,0.077,0.096,0.954
82041,0.104,0.084,0.94
82061,0.088,0.1,0.949
82082,0.079,0.104,0.933
82106,0.098,0.082,0.969
82127,0.095,0.073,0.961
82147,0.073,0.104,0.939
82172,0.093,0.093,0.94
82192,0.091,0.106,0.947
82217,0.091,0.085,0.946
82237,0.097,0.083,0.956
82258,0.08,0.093,0.94
82282,0.085,0.085,0.94
82303,0.094,0.086,0.957
82324,0.09,0.095,0.947
82348,0.092,0.089,0.948
82368,0.088,0.088,0.948
82390,0.094,0.084,0.938
82414,0.088,0.082,0.961
82435,0.09,0.085,0.94
82455,0.089,0.088,0.952
82479,0.094,0.091,0.949
82500,0.094,0.096,0.943
82520,0.093,0.092,0.941
82545,0.087,0.087,0.952
82566,0.095,0.082,0.947
82586,0.091,0.084,0.946
82610,0.085,0.09,0.939
82631,0.101,0.093,0.949
82651,0.093,0.09,0.948
82676,0.086,0.092,0.953
82696,0.092,0.089,0.942
82717,0.093,0.087,0.957
82741,0.093,0.082,0.95
82762,0.091,0.084,0.948
82782,0.094,0.089,0.95
82807,0.09,0.093,0.95
82827,0.095,0.088,0.95
82848,0.093,0.082,0.946
82872,0.092,0.08,0.954
82893,0.089,0.09,0.949
82913,0.095,0.084,0.942
82938,0.088,0.096,0.943
82959,0.09,0.089,0.94
82979,0.086,0.092,0.957
83003,0.087,0.09,0.946
83024,0.089,0.085,0.947
83044,0.092,0.088,0.943
83069,0.095,0.085,0.956
83090,0.092,0.084,0.953
83110,0.093,0.09,0.949
83134,0.093,0.092,0.957
83155,0.093,0.085,0.954
83175,0.094,0.082,0.95
83200,0.088,0.084,0.95
83220,0.093,0.084,0.939
83241,0.089,0.086,0.954
83265,0.091,0.088,0.944
83286,0.104,0.088,0.926
83307,0.058,0.106,0.946
83331,0.176,-0.037,0.994
83356,-0.683,-0.156,1.218
83376,0.043,0.137,0.88
83397,0.095,0.091,0.916
83421,0.08,0.104,0.926
83442,0.049,0.09,1.009
83462,0.09,0.074,0.975
83487,0.072,0.11,0.935
83507,0.049,0.146,0.901
83528,0.102,0.09,0.962
83552,0.05,0.122,0.971
83573,0.078,0.086,0.977
83593,0.061,0.107,0.967
83618,0.068,0.111,0.934
83638,0.05,0.139,0.919
83659,0.079,0.121,0.917
83683,0.057,0.121,0.96
83704,0.054,0.129,0.94
83724,0.057,0.131,0.949
83749,0.057,0.142,0.927
83769,0.075,0.133,0.93
83790,0.064,0.139,0.951
83814,0.075,0.139,0.953
83835,0.065,0.144,0.944
83855,0.073,0.141,0.947
83880,0.052,0.148,0.945
83900,0.079,0.139,0.951
83921,0.046,0.172,0.93
83945,0.059,0.165,0.936
83966,0.043,0.164,0.932
83986,0.038,0.166,0.943
84011,0.055,0.158,0.95
84031,0.051,0.16,0.936
84052,0.073,0.154,0.937
84076,0.07,0.161,0.933
84097,0.06,0.166,0.938
84117,0.065,0.147,0.948
84142,0.076,0.143,0.948
84162,0.071,0.143,0.956
84183,0.089,0.138,0.921
84208,0.047,0.172,0.931
84228,0.063,0.157,0.943
84248,0.06,0.154,0.947
84273,0.071,0.156,0.946
84294,0.064,0.159,0.942
84314,0.087,0.154,0.92
84339,0.082,0.149,0.962
84359,0.053,0.186,0.894
84380,0.072,0.161,0.92
84404,0.079,0.14,0.964
84425,0.082,0.132,0.972
84445,0.088,0.134,0.959
84470,0.082,0.154,0.94
84490,0.112,0.131,0.949
84511,0.134,0.107,0.949
84535,0.081,0.146,0.948
84556,0.122,0.122,0.958
84576,0.108,0.133,0.944
84601,0.122,0.141,0.905
84621,0.066,0.141,0.958
84646,0.105,0.104,0.985
84666,0.111,0.096,0.966
84687,0.085,0.129,0.955
84711,0.09,0.137,0.948
84732,0.086,0.19,0.829
84752,0.0,0.205,0.93
84777,0.146,0.071,1.008
84797,0.055,0.139,0.952
84818,0.154,0.041,1.022
84842,0.077,0.129,0.945
84863,0.083,0.147,0.906
84883,0.109,0.102,0.949
84908,0.102,0.113,0.962
84928,0.119,0.101,0.94
84949,0.085,0.13,0.935
84974,0.108,0.111,0.941
84994,0.102,0.104,0.954
85014,0.105,0.121,0.931
85039,0.071,0.124,0.946
85059,0.117,0.079,0.977
85080,0.08,0.122,0.928
85105,0.087,0.105,0.945
85125,0.098,0.105,0.932
85145,0.105,0.109,0.941
85170,0.092,0.115,0.94
85191,0.078,0.111,0.951
85211,0.131,0.084,0.919
85236,0.07,0.084,1.016
85256,0.139,0.044,0.982
85277,0.094,0.093,0.941
85301,0.086,0.111,0.929
85322,0.107,0.084,0.959
85343,0.101,0.083,0.955
85367,0.127,0.071,0.949
85387,0.095,0.092,0.948
85408,0.103,0.086,0.957
85432,0.114,0.075,0.96
85453,0.072,0.11,0.938
85473,0.136,0.063,0.957
85498,0.087,0.095,0.958
85518,0.095,0.094,0.941
85539,0.104,0.089,0.965
85563,0.109,0.093,0.933
85584,0.103,0.091,0.94
85604,0.104,0.083,0.949
85629,0.115,0.081,0.955
85649,0.1,0.091,0.941
85670,0.109,0.089,0.943
85694,0.1,0.084,0.949
85715,0.105,0.083,0.957
85735,0.101,0.089,0.932
85760,0.107,0.088,0.95
85780,0.103,0.09,0.952
85801,0.102,0.082,0.951
